time,ax,ay,az,atotal
0.000,0.15,0.10,0.48,0.51
0.010,0.10,0.01,0.27,0.29
0.020,-0.05,-0.02,0.12,0.13
0.030,-0.12,-0.06,-0.08,0.15
0.040,-0.15,-0.10,-0.34,0.38
0.050,-0.15,-0.11,-0.47,0.50
0.060,-0.15,-0.12,-0.49,0.53
0.069,-0.15,-0.15,-0.50,0.54
0.080,-0.13,-0.11,-0.38,0.42
0.089,-0.08,-0.06,-0.24,0.26
0.099,-0.04,-0.01,-0.12,0.12
0.109,0.05,0.02,0.01,0.05
0.119,0.03,0.02,0.13,0.14
0.129,-0.02,-0.05,0.24,0.25
0.139,-0.08,-0.08,0.30,0.32
0.149,-0.11,-0.08,0.29,0.32
0.159,-0.02,-0.05,0.19,0.20
0.169,0.05,0.02,-0.00,0.05
0.179,0.04,0.03,-0.16,0.16
0.189,-0.05,0.03,-0.26,0.26
0.199,-0.11,-0.01,-0.31,0.33
0.209,-0.18,-0.03,-0.31,0.36
0.219,-0.15,-0.03,-0.26,0.31
0.229,-0.07,0.02,-0.15,0.17
0.239,-0.02,0.02,-0.06,0.06
0.248,0.03,0.05,0.02,0.06
0.259,0.06,0.02,0.12,0.14
0.268,0.05,-0.01,0.14,0.15
0.278,0.03,-0.01,0.12,0.13
0.288,0.02,-0.01,0.10,0.10
0.298,0.01,-0.02,0.09,0.09
0.308,-0.01,-0.03,0.05,0.06
0.318,0.01,-0.03,-0.03,0.05
0.328,-0.01,-0.02,-0.08,0.08
0.338,-0.04,-0.02,-0.06,0.08
0.348,-0.04,-0.04,-0.02,0.06
0.358,-0.03,-0.04,-0.06,0.08
0.368,-0.00,-0.00,-0.09,0.09
0.378,-0.05,0.02,-0.11,0.12
0.388,-0.06,0.01,-0.12,0.14
0.398,-0.04,-0.02,-0.11,0.12
0.408,-0.03,-0.02,-0.01,0.04
0.418,-0.03,-0.06,0.03,0.07
0.428,-0.03,-0.08,0.03,0.09
0.438,-0.01,-0.05,-0.01,0.05
0.448,-0.02,-0.03,-0.07,0.08
0.458,-0.06,-0.05,-0.09,0.12
0.467,-0.08,-0.07,-0.10,0.14
0.477,-0.07,-0.04,-0.13,0.15
0.487,-0.04,-0.03,-0.15,0.16
0.497,-0.06,-0.01,-0.13,0.14
0.507,-0.04,0.00,-0.08,0.09
0.517,-0.03,0.01,0.01,0.03
0.527,-0.04,0.01,0.08,0.09
0.537,-0.07,0.02,0.12,0.15
0.547,-0.07,0.03,0.12,0.14
0.557,-0.06,0.04,0.09,0.12
0.567,-0.03,0.03,0.09,0.10
0.577,-0.01,0.03,0.05,0.06
0.587,0.00,0.03,0.00,0.03
0.597,-0.02,0.01,-0.03,0.04
0.607,-0.03,-0.01,-0.04,0.05
0.617,-0.03,-0.03,-0.04,0.06
0.627,-0.02,-0.06,-0.05,0.08
0.637,-0.03,-0.06,-0.10,0.12
0.646,-0.03,-0.06,-0.09,0.11
0.656,-0.04,-0.06,-0.04,0.08
0.666,0.00,-0.06,-0.04,0.08
0.676,0.03,-0.03,-0.05,0.06
0.686,0.07,0.02,-0.06,0.09
0.696,0.05,0.04,-0.04,0.07
0.706,0.01,0.01,-0.01,0.02
0.716,-0.03,-0.00,-0.02,0.03
0.726,-0.04,0.03,-0.07,0.08
0.736,-0.05,0.05,-0.07,0.10
0.746,-0.06,0.03,-0.04,0.08
0.756,-0.06,0.01,-0.05,0.07
0.766,-0.03,0.03,-0.07,0.08
0.776,-0.06,0.02,-0.06,0.09
0.786,-0.09,0.00,-0.06,0.11
0.796,-0.09,-0.05,-0.04,0.11
0.806,-0.07,-0.07,-0.01,0.09
0.815,-0.05,-0.06,0.03,0.08
0.825,-0.04,-0.07,0.05,0.09
0.836,-0.05,-0.08,0.06,0.11
0.845,-0.06,-0.08,0.07,0.12
0.855,-0.06,-0.07,0.06,0.11
0.865,-0.08,-0.05,0.02,0.10
0.875,-0.07,-0.02,-0.02,0.08
0.885,-0.07,-0.01,-0.02,0.08
0.895,-0.05,-0.03,-0.02,0.06
0.905,-0.04,0.02,-0.05,0.06
0.915,-0.03,0.04,-0.09,0.10
0.925,-0.01,0.01,-0.11,0.11
0.935,-0.01,0.01,-0.11,0.11
0.945,-0.01,0.02,-0.15,0.15
0.955,-0.03,0.01,-0.14,0.15
0.965,-0.07,-0.03,-0.18,0.19
0.975,-0.08,-0.02,-0.20,0.22
0.985,-0.08,0.00,-0.24,0.25
0.995,-0.15,0.03,-0.22,0.27
1.004,-0.14,0.05,-0.20,0.25
1.014,-0.07,0.04,-0.14,0.16
1.024,-0.01,0.05,-0.13,0.14
1.034,-0.01,0.09,-0.11,0.15
1.044,-0.05,0.14,-0.06,0.16
1.054,-0.07,0.12,-0.02,0.15
1.064,-0.09,0.06,0.06,0.12
1.074,-0.04,0.02,0.11,0.11
1.084,-0.00,-0.01,0.09,0.09
1.094,0.02,-0.05,0.02,0.06
1.104,0.02,-0.12,0.00,0.12
1.114,-0.07,-0.16,-0.02,0.18
1.124,-0.16,-0.28,0.11,0.34
1.134,-0.18,-0.49,0.64,0.83
1.144,0.12,-0.36,0.17,0.42
1.154,0.14,-0.02,-0.41,0.44
1.164,0.03,0.15,-0.58,0.60
1.174,0.08,0.11,-0.69,0.71
1.184,0.12,0.05,-0.67,0.69
1.194,-0.10,0.03,-0.46,0.47
1.203,-0.16,-0.05,-0.38,0.41
1.214,-0.26,0.02,-0.39,0.47
1.223,-0.17,0.24,-0.38,0.49
1.233,0.23,0.47,0.11,0.53
1.243,0.28,0.61,0.05,0.67
1.253,0.31,0.47,0.02,0.56
1.263,0.28,0.48,0.28,0.63
1.273,0.13,0.29,0.19,0.37
1.283,-0.19,0.09,0.09,0.23
1.293,-0.62,0.01,0.10,0.63
1.303,-1.02,-0.10,0.15,1.04
1.313,-1.28,-0.33,0.07,1.33
1.323,-1.52,-0.58,0.05,1.63
1.333,-1.56,-0.95,0.11,1.83
1.343,-1.39,-1.25,0.27,1.89
1.353,-0.68,-1.79,0.38,1.95
1.363,-0.81,-1.66,0.58,1.94
1.373,-1.26,-0.57,1.21,1.84
1.383,-0.59,-0.30,0.85,1.08
1.392,0.07,0.18,-0.18,0.26
1.402,0.31,0.33,-0.60,0.75
1.412,0.28,0.27,-0.46,0.60
1.422,0.20,-0.01,-0.25,0.32
1.432,0.10,-0.05,-0.10,0.15
1.442,0.12,-0.03,0.04,0.12
1.452,0.32,0.03,0.31,0.45
1.462,0.63,0.06,0.56,0.85
1.472,1.01,0.12,0.35,1.08
1.482,1.26,0.37,-0.21,1.33
1.492,1.48,0.51,-0.47,1.64
1.502,1.32,0.74,-0.62,1.63
1.512,1.04,0.91,-0.62,1.51
1.522,0.73,0.59,-0.61,1.12
1.532,0.21,0.32,-0.44,0.58
1.542,-0.14,0.15,-0.24,0.32
1.552,-0.31,-0.11,-0.09,0.34
1.561,-0.56,-0.12,0.21,0.61
1.572,-0.79,-0.07,0.56,0.97
1.581,-0.77,-0.12,0.75,1.08
1.591,-0.75,-0.34,1.36,1.59
1.601,-0.70,-0.53,1.58,1.81
1.611,-0.47,-0.36,1.43,1.54
1.621,-0.04,-0.18,1.00,1.02
1.631,0.04,-0.19,0.45,0.49
1.641,-0.32,-0.42,-0.08,0.54
1.651,-0.01,-0.33,-0.36,0.49
1.661,0.30,-0.04,-0.39,0.50
1.671,0.14,-0.10,-0.40,0.43
1.681,0.14,-0.31,-0.53,0.63
1.691,0.14,-0.47,-0.66,0.82
1.701,-0.19,-0.32,-0.66,0.76
1.711,-0.19,0.09,-0.66,0.69
1.721,0.09,0.46,-0.79,0.92
1.731,0.55,0.60,-0.91,1.22
1.741,0.94,0.30,-0.54,1.12
1.750,1.03,-0.19,0.18,1.06
1.760,0.69,-0.35,0.89,1.17
1.770,0.22,-0.31,1.48,1.53
1.780,0.31,-0.27,1.56,1.61
1.790,0.48,-0.01,1.47,1.54
1.800,0.30,0.38,1.02,1.13
1.810,-0.05,0.51,0.22,0.56
1.820,-0.30,0.64,-0.02,0.70
1.830,0.06,0.56,0.00,0.57
1.840,0.63,0.35,0.24,0.76
1.850,1.15,0.32,0.75,1.41
1.860,1.50,0.41,1.35,2.06
1.870,1.38,0.64,2.39,2.83
1.880,1.14,0.82,3.28,3.57
1.890,0.93,0.69,3.56,3.74
1.900,0.74,0.40,3.03,3.15
1.910,0.47,-0.18,1.39,1.48
1.920,0.41,-0.50,-0.53,0.84
1.929,-0.18,-0.76,-1.69,1.86
1.940,-0.66,-1.18,-2.47,2.82
1.950,-0.95,-1.06,-2.54,2.91
1.959,-0.87,-0.73,-2.22,2.49
1.969,-0.24,-0.22,-1.83,1.85
1.979,0.01,0.40,-0.97,1.04
1.989,-0.43,-0.42,0.07,0.61
1.999,0.16,-0.57,1.39,1.51
2.009,2.03,-0.40,1.94,2.83
2.019,3.15,-2.22,0.00,3.85
2.029,5.98,-3.21,-2.32,7.17
2.039,8.41,-3.13,-3.06,9.48
2.049,2.80,-0.67,-3.01,4.17
2.059,-2.49,0.78,-2.95,3.94
2.069,-5.39,1.26,-2.76,6.19
2.079,-3.91,0.17,-1.00,4.04
2.089,0.81,-1.88,0.40,2.08
2.099,2.63,-1.67,0.32,3.13
2.109,2.61,-0.27,0.43,2.66
2.118,2.35,0.15,1.41,2.74
2.129,1.69,-0.10,2.70,3.18
2.138,1.72,0.06,3.10,3.55
2.148,0.92,0.45,1.92,2.18
2.158,-0.87,-0.38,0.63,1.14
2.168,-1.21,-0.58,-0.73,1.53
2.178,0.54,-1.10,-1.25,1.75
2.188,6.22,-2.50,0.23,6.71
2.198,1.84,-2.62,-0.61,3.26
2.208,-1.58,-1.49,-2.30,3.16
2.218,0.17,-0.87,-1.09,1.41
2.228,1.55,-0.60,0.12,1.66
2.238,3.09,-0.05,-0.17,3.10
2.248,4.30,1.43,-0.61,4.57
2.258,2.66,3.72,-1.23,4.73
2.268,-0.19,4.92,-1.80,5.24
2.278,-0.42,4.27,-2.49,4.96
2.288,1.62,2.16,-3.32,4.28
2.298,1.11,1.06,-3.40,3.73
2.308,-0.48,0.72,-2.71,2.85
2.318,-1.09,0.18,-1.82,2.13
2.328,-0.28,-0.40,-1.36,1.45
2.337,1.02,0.11,-0.81,1.31
2.347,1.60,1.40,-0.24,2.14
2.357,0.94,1.59,-0.64,1.96
2.367,1.72,0.58,-1.30,2.23
2.377,1.24,0.48,-1.27,1.84
2.387,-1.32,0.87,-0.78,1.76
2.397,-2.69,0.39,-0.21,2.73
2.407,-3.38,-0.12,1.01,3.53
2.417,-2.82,-0.69,1.36,3.21
2.427,-2.49,-1.13,1.04,2.92
2.437,-2.65,-1.04,0.72,2.94
2.447,-2.72,-0.56,0.49,2.82
2.457,-2.00,-0.36,0.10,2.04
2.467,-1.73,-0.54,0.15,1.81
2.477,-1.65,-1.07,0.08,1.96
2.487,-1.55,-1.57,-0.06,2.21
2.496,-2.11,-1.56,0.01,2.62
2.507,-2.36,-1.44,-0.08,2.76
2.516,-1.94,-1.39,-0.04,2.38
2.527,-2.09,-1.38,0.54,2.56
2.536,-1.89,-1.41,0.80,2.49
2.546,-1.67,-1.29,0.90,2.30
2.556,-1.45,-0.98,1.19,2.12
2.566,-1.22,-0.71,0.99,1.73
2.576,-1.44,-0.54,0.56,1.64
2.586,-1.50,-0.41,0.39,1.60
2.596,-1.33,-0.28,0.46,1.44
2.606,-1.22,-0.38,0.49,1.37
2.616,-1.22,-0.57,0.66,1.50
2.626,-1.05,-0.60,1.04,1.60
2.636,-0.86,-0.55,1.07,1.48
2.646,-0.63,-0.53,0.68,1.06
2.656,-0.37,-0.55,-0.01,0.66
2.666,-0.40,-0.66,-0.37,0.85
2.675,-0.72,-0.79,-0.42,1.15
2.686,-1.30,-1.27,-0.34,1.85
2.695,-1.79,-1.67,-0.09,2.45
2.706,-1.87,-1.86,-0.12,2.64
2.715,-1.90,-1.87,-0.30,2.68
2.726,-1.72,-1.79,-0.34,2.51
2.735,-1.53,-1.70,-0.11,2.29
2.745,-1.33,-1.59,0.19,2.08
2.755,-1.16,-1.49,0.30,1.91
2.765,-0.84,-1.20,0.26,1.49
2.775,-0.66,-0.85,0.16,1.09
2.785,-0.89,-0.87,0.17,1.26
2.795,-1.00,-0.59,0.24,1.19
2.805,-0.37,0.05,0.08,0.38
2.815,0.30,0.46,-0.28,0.61
2.825,0.88,0.81,-0.38,1.25
2.835,1.15,1.22,-0.37,1.71
2.845,0.80,1.37,-0.14,1.59
2.854,0.62,1.28,0.28,1.45
2.865,0.87,1.43,0.68,1.80
2.874,1.58,1.83,1.02,2.63
2.884,1.87,1.94,1.45,3.07
2.894,2.21,2.23,1.84,3.63
2.905,2.48,3.08,1.70,4.30
2.914,2.50,3.82,0.91,4.66
2.924,2.25,3.59,0.46,4.26
2.934,1.89,3.83,0.01,4.27
2.944,1.36,4.05,-0.75,4.34
2.954,1.59,4.23,-1.49,4.76
2.964,1.64,4.23,-1.92,4.92
2.974,0.73,3.40,-2.17,4.10
2.984,0.38,2.70,-2.11,3.45
2.994,0.46,2.14,-1.78,2.82
3.004,0.42,1.88,-1.02,2.19
3.014,0.40,1.64,-0.34,1.72
3.024,0.50,1.37,0.02,1.46
3.034,0.20,1.02,0.33,1.09
3.044,0.01,0.68,0.60,0.91
3.053,-0.08,0.51,0.73,0.90
3.064,-0.23,0.37,0.71,0.83
3.073,-0.30,0.13,0.50,0.60
3.084,-0.32,-0.12,0.34,0.48
3.093,-0.38,-0.27,0.37,0.59
3.103,-0.33,-0.37,0.47,0.69
3.113,-0.24,-0.49,0.49,0.73
3.123,-0.33,-0.59,0.47,0.82
3.133,-0.53,-0.61,0.45,0.93
3.143,-0.84,-0.57,0.36,1.08
3.153,-1.16,-0.62,0.14,1.32
3.163,-1.26,-0.80,-0.23,1.51
3.173,-1.76,-0.62,-0.35,1.90
3.183,-2.00,-0.35,-0.43,2.08
3.193,-1.82,-0.47,-0.62,1.98
3.203,-1.58,-0.66,-0.62,1.82
3.213,-1.51,-0.36,-0.46,1.62
3.223,-1.63,0.08,-0.27,1.65
3.233,-1.47,0.28,-0.17,1.50
3.243,-0.92,0.39,-0.23,1.02
3.252,-0.28,0.64,-0.37,0.79
3.263,0.20,0.73,-0.52,0.92
3.272,1.15,0.97,-0.63,1.63
3.282,1.71,1.25,-0.46,2.17
3.292,1.37,1.19,-0.38,1.85
3.302,1.04,1.04,-0.39,1.52
3.312,0.71,1.08,-0.34,1.33
3.322,0.36,1.26,-0.22,1.33
3.332,0.06,1.38,-0.20,1.40
3.342,-0.10,1.35,-0.39,1.41
3.352,-0.08,1.21,-0.70,1.40
3.362,-0.12,1.09,-0.98,1.47
3.372,-0.25,1.04,-1.06,1.51
3.382,-0.41,0.96,-0.87,1.36
3.392,-0.50,0.93,-0.49,1.16
3.402,-0.66,0.89,-0.02,1.11
3.412,-0.73,0.85,0.29,1.16
3.422,-0.52,0.79,0.34,1.01
3.431,-0.15,0.81,0.25,0.86
3.442,0.15,0.83,0.17,0.86
3.452,0.25,0.84,0.12,0.88
3.461,0.21,0.73,0.12,0.77
3.471,-0.00,0.56,0.46,0.73
3.481,-0.42,0.41,1.05,1.20
3.491,-1.05,0.14,1.76,2.05
3.501,-1.41,0.02,2.49,2.86
3.511,-1.05,0.24,2.87,3.06
3.521,-0.11,0.24,2.23,2.25
3.531,0.78,0.30,1.15,1.42
3.541,1.27,0.59,0.30,1.43
3.551,1.08,0.74,-0.28,1.34
3.561,0.25,0.76,-0.45,0.92
3.571,-0.77,0.64,-0.04,1.00
3.581,-1.43,0.64,0.59,1.67
3.591,-1.16,0.86,0.55,1.55
3.601,-0.29,0.94,-0.24,1.01
3.611,0.48,1.06,-0.60,1.31
3.621,0.83,1.37,-0.57,1.70
3.630,0.77,1.66,-2.03,2.73
3.640,-0.17,1.75,-3.77,4.16
3.650,-1.64,1.30,-2.67,3.40
3.660,-2.17,1.17,-2.05,3.21
3.670,-1.44,1.28,-2.03,2.80
3.680,-1.10,1.22,-1.74,2.40
3.690,-2.09,1.09,-0.74,2.47
3.700,-3.57,0.59,1.33,3.85
3.710,-2.41,0.02,2.00,3.13
3.720,-0.71,0.06,2.91,3.00
3.730,1.14,0.01,3.30,3.49
3.740,2.38,-0.11,2.84,3.71
3.750,1.62,0.05,1.90,2.49
3.760,-0.68,0.30,0.88,1.15
3.770,-3.97,-0.78,-0.18,4.05
3.780,-5.87,-2.08,-2.21,6.61
3.789,-6.16,-1.58,-3.42,7.23
3.800,-4.27,-1.05,-3.53,5.64
3.809,-2.25,-1.03,-3.13,3.99
3.820,-1.85,-1.17,-2.95,3.68
3.829,-2.44,-1.33,-2.37,3.66
3.839,-3.55,-1.26,-1.14,3.94
3.849,-3.05,-0.64,-1.67,3.54
3.859,-1.74,-0.70,-3.00,3.54
3.869,-1.40,-1.33,-2.03,2.80
3.879,-1.26,-1.81,0.03,2.20
3.889,1.08,-1.17,1.14,1.96
3.899,3.50,0.02,1.48,3.80
3.909,4.39,0.89,1.04,4.60
3.919,5.48,2.36,-0.27,5.97
3.929,4.96,3.27,-0.94,6.01
3.939,2.60,0.53,-0.57,2.71
3.949,0.22,-1.10,0.45,1.21
3.959,-0.72,-0.33,1.05,1.31
3.969,1.24,-0.64,2.22,2.62
3.979,-0.94,1.83,0.43,2.10
3.988,0.80,2.10,0.30,2.26
3.999,0.87,2.22,-0.63,2.47
4.008,0.43,2.42,-1.38,2.82
4.019,0.73,2.71,-1.68,3.27
4.028,1.81,3.21,-1.64,4.03
4.038,-0.28,2.01,-1.21,2.36
4.048,-1.37,1.66,-1.09,2.41
4.058,-1.23,1.72,-0.22,2.12
4.068,-0.94,1.72,0.39,2.00
4.078,-0.26,1.56,0.41,1.63
4.088,0.66,2.20,-0.34,2.33
4.098,-0.50,2.32,-0.49,2.42
4.108,-0.47,1.27,-0.65,1.50
4.118,-0.55,0.70,-1.34,1.61
4.128,-0.66,0.37,-1.79,1.94
4.138,-0.10,-0.56,0.02,0.57
4.148,-0.21,-1.43,1.14,1.84
4.158,-0.16,-1.50,0.87,1.74
4.167,-0.48,-0.78,0.14,0.93
4.178,-0.18,-0.44,0.38,0.61
4.188,-0.12,-0.16,0.82,0.85
4.197,0.90,0.18,1.32,1.61
4.207,1.42,0.20,1.42,2.01
4.217,1.26,-0.44,0.99,1.66
4.227,0.70,-0.39,0.13,0.81
4.237,-0.26,0.89,-0.89,1.29
4.247,-1.51,1.32,-2.23,3.00
4.257,-1.04,0.97,-1.01,1.74
4.267,-0.18,0.90,-0.56,1.08
4.277,-0.42,0.86,0.04,0.96
4.287,0.24,1.03,0.63,1.23
4.297,0.09,0.01,0.15,0.17
4.307,0.00,-0.42,-0.16,0.45
4.317,0.10,-0.15,-0.09,0.20
4.327,0.29,0.39,-0.30,0.57
4.337,0.42,0.75,-0.34,0.93
4.347,0.32,1.05,-0.19,1.12
4.357,0.51,1.14,-0.16,1.26
4.366,0.23,0.63,0.04,0.67
4.377,-0.06,0.55,0.10,0.56
4.386,-0.15,0.54,-0.03,0.56
4.396,-0.22,0.54,-0.15,0.60
4.406,-0.18,0.38,-0.21,0.47
4.416,-0.26,0.30,-0.20,0.44
4.426,-0.35,0.30,-0.32,0.55
4.436,-0.35,0.22,-0.18,0.45
4.446,-0.21,0.79,-0.19,0.84
4.456,-0.21,0.93,0.01,0.96
4.466,-0.13,0.61,0.22,0.66
4.476,-0.31,0.40,0.17,0.53
4.486,-0.23,-0.03,0.26,0.35
4.496,-0.32,-0.20,0.22,0.44
4.506,-0.31,-0.23,0.18,0.43
4.516,-0.34,-0.17,0.07,0.39
4.526,-0.24,-0.08,-0.07,0.26
4.536,-0.05,-0.08,-0.03,0.10
4.545,-0.15,1.27,0.10,1.28
4.556,0.31,3.63,0.22,3.65
4.565,1.21,3.06,-0.22,3.30
4.576,0.55,1.33,-1.23,1.89
4.585,-0.23,1.36,-0.79,1.59
4.595,0.02,2.45,0.12,2.45
4.605,0.30,2.57,0.35,2.61
4.615,0.59,1.84,0.12,1.93
4.625,1.08,1.27,0.11,1.67
4.635,0.60,1.19,-0.08,1.33
4.645,-0.25,2.32,-0.56,2.40
4.655,-0.70,2.70,-0.75,2.89
4.665,-0.46,1.94,-0.61,2.09
4.675,0.29,0.87,-0.31,0.97
4.685,0.73,0.45,0.43,0.96
4.695,-0.43,0.14,1.25,1.33
4.705,-0.39,0.45,0.11,0.61
4.715,0.58,1.39,-1.10,1.87
4.724,0.10,1.48,-1.23,1.93
4.735,-0.09,2.02,-1.40,2.46
4.744,-0.48,1.93,-1.65,2.58
4.755,-0.23,0.25,-0.74,0.82
4.764,-0.23,-2.11,0.64,2.22
4.774,0.22,-2.25,0.80,2.40
4.784,1.24,0.30,-0.57,1.39
4.794,2.78,14.23,-0.15,14.50
4.804,1.60,19.60,-0.07,19.67
4.814,-2.90,2.87,-3.17,5.17
4.824,-3.76,-2.51,-0.86,4.60
4.834,-3.55,-3.83,-0.62,5.26
4.844,-2.69,-6.51,-1.30,7.16
4.854,-0.75,-7.57,-1.23,7.71
4.864,0.63,-3.39,0.64,3.50
4.874,-0.74,0.23,0.92,1.21
4.883,-0.18,0.69,0.80,1.08
4.894,-0.37,3.44,1.78,3.89
4.904,-2.06,3.30,0.33,3.91
4.914,-2.45,1.39,-0.18,2.82
4.924,-2.61,0.56,0.84,2.80
4.934,-0.35,-0.74,1.58,1.78
4.943,2.62,0.17,1.12,2.85
4.953,2.17,1.00,-0.12,2.39
4.963,3.15,-1.00,1.38,3.58
4.973,3.81,-0.92,2.17,4.48
4.983,4.66,-2.20,0.54,5.18
4.993,4.58,-2.19,-0.60,5.11
5.003,3.43,-0.35,-0.42,3.48
5.013,1.36,0.58,-0.15,1.49
5.023,-0.77,-0.87,0.48,1.25
5.033,-1.34,-1.53,0.21,2.05
5.043,-1.07,-2.21,0.35,2.48
5.053,-0.38,-2.93,-0.06,2.95
5.063,-0.78,-3.88,0.22,3.96
5.073,-1.23,-3.59,0.73,3.87
5.083,-0.37,-0.47,0.06,0.60
5.093,1.08,2.39,-0.62,2.70
5.103,0.47,1.42,-0.58,1.61
5.113,0.01,0.38,-0.10,0.40
5.122,1.16,0.69,0.40,1.41
5.132,0.93,-0.48,0.47,1.15
5.142,0.99,-0.40,0.44,1.15
5.152,0.49,-0.79,0.77,1.21
5.162,-0.14,-1.12,0.89,1.44
5.172,-0.00,-0.44,0.66,0.80
5.182,-0.36,0.20,0.41,0.58
5.192,-0.24,0.66,0.02,0.71
5.202,-0.47,0.47,-0.19,0.69
5.212,-0.07,0.99,-0.25,1.02
5.222,0.34,0.86,-0.14,0.94
5.232,1.21,1.59,-0.07,2.01
5.242,0.87,0.39,0.01,0.96
5.252,-0.05,-1.61,-0.06,1.61
5.262,-0.02,-1.69,0.21,1.71
5.272,0.57,-0.10,0.34,0.67
5.282,0.13,-1.15,0.63,1.32
5.292,-0.21,-1.33,0.47,1.42
5.301,0.31,-0.89,0.31,1.00
5.312,0.83,-0.47,0.18,0.97
5.321,0.95,-0.52,0.22,1.11
5.332,1.07,-0.89,0.08,1.40
5.341,1.26,-1.08,-0.04,1.66
5.351,1.10,-0.93,-0.01,1.44
5.361,0.66,-0.78,-0.01,1.02
5.371,0.45,-0.56,0.01,0.72
5.381,0.07,-0.44,0.06,0.45
5.391,0.07,-0.31,0.05,0.32
5.401,-0.10,0.08,0.13,0.18
5.411,-0.69,0.54,0.32,0.93
5.421,-1.16,1.56,0.25,1.96
5.431,-1.03,1.95,-0.08,2.20
5.441,-1.27,2.31,-0.11,2.64
5.451,-1.44,2.38,0.16,2.79
5.461,-0.81,1.41,0.54,1.72
5.471,0.34,0.27,0.57,0.72
5.480,0.83,0.28,0.20,0.90
5.491,0.68,0.46,-0.04,0.82
5.500,0.67,0.44,-0.09,0.81
5.510,0.64,0.39,-0.03,0.75
5.520,0.62,0.27,0.09,0.68
5.530,0.61,0.29,0.18,0.70
5.540,0.41,0.23,0.34,0.58
5.550,0.30,0.24,0.43,0.58
5.560,0.22,0.22,0.43,0.53
5.570,0.23,0.20,0.37,0.47
5.580,0.29,0.19,0.23,0.42
5.590,0.29,0.12,0.19,0.37
5.600,0.32,0.11,0.18,0.38
5.610,0.30,0.17,0.17,0.38
5.620,0.27,0.19,0.20,0.39
5.630,0.27,0.24,0.30,0.47
5.640,0.25,0.26,0.43,0.56
5.650,0.21,0.28,0.46,0.58
5.659,0.17,0.27,0.46,0.56
5.670,0.14,0.27,0.48,0.57
5.679,0.14,0.29,0.49,0.59
5.690,0.14,0.31,0.45,0.56
5.699,0.17,0.32,0.44,0.57
5.709,0.22,0.29,0.39,0.54
5.719,0.25,0.27,0.34,0.50
5.729,0.27,0.29,0.28,0.49
5.739,0.28,0.33,0.24,0.50
5.749,0.33,0.39,0.27,0.58
5.759,0.33,0.42,0.28,0.61
5.769,0.31,0.44,0.27,0.60
5.779,0.27,0.41,0.26,0.56
5.789,0.25,0.39,0.30,0.55
5.799,0.19,0.33,0.34,0.51
5.809,0.15,0.28,0.38,0.49
5.819,0.11,0.23,0.40,0.47
5.829,0.09,0.19,0.41,0.46
5.839,0.12,0.15,0.37,0.41
5.849,0.17,0.11,0.28,0.34
5.858,0.27,0.09,0.23,0.37
5.869,0.38,0.06,0.24,0.46
5.878,0.49,0.06,0.25,0.55
5.888,0.52,0.10,0.28,0.60
5.898,0.61,0.16,0.34,0.71
5.908,0.61,0.23,0.37,0.75
5.918,0.56,0.30,0.35,0.73
5.928,0.54,0.37,0.33,0.73
5.938,0.53,0.42,0.38,0.77
5.948,0.57,0.49,0.39,0.85
5.958,0.63,0.52,0.40,0.90
5.968,0.71,0.52,0.36,0.96
5.978,0.75,0.49,0.38,0.97
5.988,0.75,0.43,0.43,0.96
5.998,0.78,0.41,0.40,0.97
6.008,0.76,0.34,0.32,0.89
6.018,0.74,0.28,0.31,0.85
6.028,0.73,0.29,0.32,0.85
6.037,0.64,0.26,0.32,0.76
6.048,0.52,0.22,0.31,0.65
6.057,0.46,0.22,0.29,0.58
6.067,0.36,0.25,0.27,0.51
6.077,0.28,0.25,0.20,0.42
6.087,0.19,0.20,0.19,0.33
6.097,0.25,-0.10,0.59,0.65
6.107,0.30,-0.76,1.19,1.45
6.117,0.38,-0.88,0.74,1.21
6.127,0.35,-0.44,0.01,0.56
6.137,0.39,0.23,-0.12,0.47
6.147,0.56,0.64,0.04,0.85
6.157,0.57,0.85,0.21,1.04
6.167,0.42,0.85,0.09,0.95
6.177,0.38,0.78,-0.07,0.87
6.187,0.33,0.59,-0.11,0.69
6.197,0.24,0.47,-0.06,0.53
6.207,0.16,0.37,0.08,0.41
6.216,0.08,0.27,0.27,0.39
6.227,-0.01,0.24,0.37,0.44
6.236,-0.17,0.26,0.37,0.48
6.246,-0.21,0.24,0.32,0.46
6.256,-0.22,0.20,0.30,0.42
6.266,-0.09,0.22,0.28,0.36
6.276,-0.11,0.25,0.23,0.36
6.286,-0.17,0.26,0.21,0.38
6.296,-0.21,0.31,0.21,0.43
6.306,-0.12,0.31,0.25,0.42
6.316,0.01,0.24,0.30,0.39
6.326,0.32,0.17,0.31,0.47
6.336,0.55,0.16,0.34,0.67
6.346,0.64,0.18,0.35,0.75
6.356,0.57,0.15,0.40,0.71
6.366,0.44,0.15,0.39,0.61
6.376,0.28,0.16,0.34,0.47
6.386,0.11,0.17,0.35,0.40
6.396,0.04,0.15,0.36,0.40
6.406,0.03,0.22,0.29,0.37
6.416,0.10,0.36,0.18,0.41
6.426,0.13,0.39,0.17,0.44
6.435,0.16,0.36,0.08,0.40
6.446,0.23,0.32,-0.03,0.40
6.455,0.16,0.33,-0.04,0.37
6.466,0.03,0.35,-0.01,0.35
6.475,0.33,0.41,-0.14,0.54
6.485,0.57,0.20,-0.04,0.61
6.495,0.52,0.31,0.08,0.61
6.505,0.46,0.31,0.16,0.58
6.515,0.38,0.15,0.28,0.50
6.525,0.51,0.15,0.28,0.60
6.535,0.60,0.24,0.14,0.66
6.545,0.43,0.23,0.11,0.50
6.555,0.26,0.20,0.21,0.39
6.565,0.22,0.20,0.31,0.43
6.575,0.17,0.23,0.28,0.40
6.585,0.21,0.27,0.25,0.42
6.594,0.26,0.31,0.34,0.53
6.605,0.22,0.39,0.38,0.58
6.614,0.24,0.37,0.37,0.57
6.625,0.32,0.37,0.36,0.61
6.634,0.47,0.41,0.39,0.73
6.644,0.50,0.47,0.44,0.81
6.654,0.43,0.44,0.49,0.79
6.664,0.49,0.42,0.59,0.88
6.674,0.64,0.47,0.55,0.97
6.684,0.60,0.30,0.43,0.80
6.694,0.69,0.17,0.31,0.78
6.704,0.59,0.18,0.05,0.62
6.714,0.27,0.34,-0.13,0.45
6.724,0.07,0.41,-0.02,0.42
6.734,-0.01,0.36,0.10,0.37
6.744,0.21,0.32,0.14,0.41
6.754,0.50,0.32,0.17,0.61
6.764,0.57,0.34,0.16,0.68
6.774,0.45,0.34,0.20,0.60
6.784,0.41,0.30,0.24,0.56
6.793,0.36,0.31,0.25,0.54
6.804,0.31,0.28,0.22,0.47
6.813,0.26,0.21,0.22,0.40
6.824,0.19,0.17,0.21,0.33
6.833,0.12,0.16,0.19,0.28
6.843,0.05,0.16,0.18,0.25
6.853,-0.08,0.17,0.10,0.21
6.863,-0.05,0.21,-0.00,0.21
6.873,0.03,0.21,-0.08,0.23
6.883,0.13,0.19,-0.08,0.25
6.893,0.26,0.19,0.02,0.32
6.903,0.28,0.19,0.07,0.35
6.913,0.24,0.20,0.06,0.32
6.923,0.26,0.18,0.08,0.33
6.933,0.25,0.15,0.11,0.31
6.943,0.22,0.18,0.08,0.29
6.953,0.16,0.18,0.06,0.25
6.963,0.07,0.14,0.09,0.18
6.973,0.08,0.11,0.14,0.20
6.983,0.07,0.10,0.13,0.18
6.992,0.03,0.09,0.09,0.13
7.002,0.05,0.04,0.06,0.09
7.012,0.05,0.01,0.04,0.07
7.022,0.03,0.02,-0.03,0.05
7.032,0.03,0.06,-0.13,0.14
7.042,-0.02,0.06,-0.15,0.16
7.052,-0.06,0.09,-0.11,0.16
7.062,-0.12,0.18,-0.13,0.25
7.072,-0.28,0.22,-0.11,0.37
7.082,-0.29,0.19,0.00,0.34
7.092,-0.27,0.20,0.12,0.36
7.102,-0.33,0.23,0.24,0.47
7.112,-0.37,0.24,0.28,0.52
7.122,-0.32,0.24,0.31,0.51
7.132,-0.28,0.29,0.28,0.49
7.142,-0.20,0.28,0.25,0.43
7.152,-0.19,0.30,0.22,0.42
7.162,-0.17,0.34,0.23,0.45
7.171,-0.21,0.37,0.20,0.47
7.182,-0.11,0.39,0.19,0.45
7.191,0.00,0.36,0.19,0.40
7.201,0.09,0.34,0.19,0.40
7.211,0.10,0.32,0.22,0.40
7.221,0.17,0.35,0.24,0.46
7.231,0.24,0.36,0.26,0.50
7.241,0.20,0.36,0.27,0.49
7.251,0.17,0.36,0.26,0.47
7.261,0.11,0.29,0.26,0.41
7.271,0.09,0.27,0.19,0.34
7.281,-0.00,0.27,0.14,0.30
7.291,-0.04,0.32,0.09,0.33
7.301,0.10,0.42,0.09,0.45
7.311,0.06,0.46,0.11,0.48
7.321,0.11,0.53,0.13,0.56
7.331,0.23,0.57,0.11,0.63
7.341,0.24,0.60,0.17,0.67
7.351,0.23,0.60,0.17,0.67
7.361,0.23,0.63,0.22,0.70
7.370,0.21,0.62,0.22,0.69
7.381,0.17,0.61,0.22,0.67
7.390,0.23,0.62,0.20,0.69
7.400,0.23,0.59,0.22,0.67
7.410,0.22,0.62,0.21,0.69
7.420,0.22,0.62,0.12,0.67
7.430,0.24,0.61,0.20,0.69
7.440,0.21,0.57,0.26,0.66
7.450,0.17,0.54,0.20,0.60
7.460,0.17,0.55,0.20,0.61
7.470,0.15,0.56,0.24,0.63
7.480,0.14,0.56,0.30,0.65
7.490,0.13,0.53,0.36,0.65
7.500,0.13,0.53,0.36,0.66
7.510,0.11,0.53,0.33,0.64
7.520,0.09,0.53,0.30,0.62
7.529,0.08,0.54,0.25,0.60
7.540,0.12,0.56,0.19,0.60
7.549,0.14,0.59,0.12,0.62
7.560,0.16,0.61,0.08,0.64
7.569,0.13,0.60,0.11,0.63
7.579,0.14,0.58,0.15,0.62
7.589,0.05,0.64,0.16,0.66
7.599,0.09,0.66,0.19,0.70
7.609,0.01,0.64,0.22,0.68
7.619,-0.03,0.66,0.24,0.70
7.629,-0.11,0.68,0.27,0.74
7.639,-0.16,0.67,0.28,0.74
7.649,-0.19,0.68,0.26,0.75
7.659,-0.23,0.67,0.24,0.75
7.669,-0.21,0.66,0.20,0.72
7.679,-0.19,0.66,0.12,0.70
7.689,-0.20,0.66,0.06,0.69
7.699,-0.19,0.62,0.04,0.65
7.709,-0.12,0.60,0.02,0.62
7.719,-0.13,0.59,0.00,0.60
7.728,-0.18,0.59,-0.01,0.62
7.739,-0.22,0.61,0.03,0.65
7.748,-0.23,0.60,0.06,0.64
7.758,-0.25,0.57,0.10,0.63
7.768,-0.28,0.55,0.17,0.64
7.778,-0.31,0.51,0.22,0.64
7.788,-0.32,0.48,0.24,0.62
7.798,-0.33,0.43,0.27,0.60
7.808,-0.35,0.41,0.28,0.61
7.818,-0.32,0.40,0.27,0.58
7.828,-0.32,0.37,0.28,0.57
7.838,-0.26,0.36,0.23,0.50
7.848,-0.21,0.37,0.20,0.47
7.858,-0.14,0.38,0.19,0.45
7.868,-0.12,0.36,0.17,0.42
7.878,-0.07,0.34,0.12,0.37
7.888,-0.01,0.37,0.07,0.37
7.898,0.04,0.42,0.07,0.43
7.908,0.05,0.45,0.12,0.47
7.918,0.03,0.47,0.13,0.49
7.927,0.06,0.48,0.12,0.50
7.938,0.07,0.48,0.15,0.50
7.947,-0.02,0.45,0.22,0.51
7.957,0.02,0.46,0.24,0.53
7.967,0.08,0.45,0.26,0.52
7.977,0.08,0.45,0.25,0.53
7.987,0.09,0.45,0.25,0.52
7.997,0.13,0.44,0.25,0.52
8.007,0.13,0.46,0.23,0.53
8.017,0.09,0.49,0.24,0.55
8.027,0.08,0.52,0.26,0.59
8.037,0.11,0.54,0.24,0.60
8.047,0.09,0.58,0.21,0.63
8.057,0.08,0.61,0.18,0.64
8.067,0.07,0.64,0.13,0.65
8.077,0.09,0.66,0.12,0.68
8.087,0.06,0.64,0.10,0.65
8.097,0.03,0.65,0.08,0.66
8.106,-0.03,0.67,0.08,0.67
8.116,-0.05,0.65,0.11,0.66
8.126,-0.07,0.67,-0.02,0.67
8.136,-0.08,0.66,-0.12,0.68
8.146,-0.07,0.65,-0.20,0.68
8.156,-0.09,0.67,-0.28,0.73
8.166,-0.07,0.63,-0.28,0.69
8.176,-0.09,0.57,-0.27,0.63
8.186,-0.16,0.57,-0.30,0.67
8.196,-0.22,0.56,-0.21,0.64
8.206,-0.29,0.51,-0.10,0.59
8.216,-0.36,0.47,0.01,0.60
8.226,-0.46,0.42,0.14,0.64
8.236,-0.52,0.36,0.26,0.69
8.246,-0.54,0.34,0.32,0.71
8.256,-0.54,0.35,0.33,0.73
8.265,-0.53,0.37,0.29,0.71
8.276,-0.48,0.36,0.24,0.65
8.285,-0.44,0.34,0.18,0.59
8.295,-0.39,0.39,0.12,0.56
8.305,-0.40,0.42,0.09,0.59
8.315,-0.41,0.42,0.06,0.59
8.325,-0.41,0.44,0.05,0.61
8.335,-0.42,0.46,0.08,0.63
8.345,-0.42,0.47,0.11,0.64
8.355,-0.48,0.50,0.15,0.71
8.365,-0.52,0.47,0.15,0.72
8.375,-0.51,0.45,0.13,0.69
8.385,-0.52,0.46,0.12,0.70
8.395,-0.51,0.48,0.10,0.70
8.405,-0.50,0.51,0.04,0.71
8.415,-0.49,0.54,0.01,0.73
8.425,-0.44,0.52,-0.06,0.69
8.435,-0.43,0.55,-0.05,0.70
8.445,-0.39,0.60,-0.03,0.71
8.455,-0.37,0.64,-0.02,0.73
8.465,-0.36,0.65,0.00,0.74
8.475,-0.36,0.66,0.07,0.76
8.484,-0.34,0.67,0.10,0.76
8.495,-0.36,0.68,0.06,0.77
8.504,-0.33,0.71,0.03,0.78
8.514,-0.28,0.68,0.06,0.74
8.524,-0.24,0.68,0.04,0.72
8.534,-0.23,0.70,0.03,0.74
8.544,-0.25,0.68,0.07,0.73
8.554,-0.24,0.70,0.07,0.74
8.564,-0.29,0.68,0.07,0.75
8.574,-0.32,0.66,0.08,0.73
8.584,-0.36,0.67,0.15,0.77
8.594,-0.40,0.66,0.12,0.79
8.604,-0.43,0.65,0.10,0.78
8.614,-0.44,0.65,0.11,0.79
8.624,-0.41,0.67,0.03,0.79
8.634,-0.43,0.64,0.07,0.78
8.644,-0.37,0.67,0.06,0.76
8.654,-0.37,0.64,0.06,0.74
8.663,-0.36,0.63,0.08,0.73
8.674,-0.37,0.66,0.09,0.76
8.683,-0.34,0.63,0.16,0.73
8.693,-0.32,0.60,0.16,0.70
8.703,-0.30,0.59,0.16,0.68
8.713,-0.29,0.60,0.12,0.68
8.723,-0.26,0.61,0.11,0.68
8.733,-0.28,0.57,0.08,0.64
8.743,-0.26,0.56,0.06,0.62
8.753,-0.26,0.57,0.15,0.65
8.763,-0.27,0.60,0.17,0.68
8.773,-0.31,0.57,0.21,0.69
8.783,-0.30,0.60,0.30,0.73
8.793,-0.31,0.57,0.32,0.72
8.803,-0.34,0.52,0.26,0.68
8.813,-0.28,0.58,0.14,0.66
8.823,-0.25,0.61,0.08,0.66
8.833,-0.23,0.62,-0.01,0.67
8.843,-0.19,0.62,-0.03,0.65
8.853,-0.19,0.66,-0.03,0.68
8.862,-0.16,0.71,-0.10,0.73
8.872,-0.19,0.68,-0.11,0.72
8.882,-0.22,0.64,-0.05,0.67
8.892,-0.24,0.64,0.09,0.69
8.902,-0.27,0.60,0.11,0.67
8.912,-0.30,0.56,0.11,0.65
8.922,-0.28,0.54,0.15,0.62
8.932,-0.31,0.51,0.20,0.63
8.942,-0.31,0.50,0.21,0.62
8.952,-0.25,0.52,0.20,0.61
8.962,-0.25,0.53,0.16,0.61
8.972,-0.19,0.52,0.15,0.57
8.982,-0.18,0.50,0.19,0.56
8.992,-0.15,0.54,0.17,0.58
9.002,-0.14,0.59,0.14,0.62
9.012,-0.13,0.64,0.11,0.66
9.021,-0.10,0.69,0.07,0.70
9.032,-0.07,0.68,-0.05,0.69
9.042,-0.16,0.69,-0.20,0.74
9.052,-0.05,0.75,-0.20,0.78
9.061,-0.08,0.72,-0.15,0.74
9.071,-0.15,0.67,-0.14,0.70
9.081,-0.23,0.63,-0.08,0.67
9.091,-0.28,0.60,-0.06,0.66
9.101,-0.38,0.54,0.00,0.66
9.111,-0.46,0.48,-0.03,0.66
9.121,-0.48,0.41,-0.03,0.63
9.131,-0.49,0.37,-0.02,0.61
9.141,-0.55,0.41,-0.04,0.68
9.151,-0.60,0.46,0.00,0.76
9.161,-0.64,0.50,0.01,0.82
9.171,-0.66,0.55,0.09,0.87
9.181,-0.67,0.61,0.09,0.91
9.191,-0.70,0.61,0.10,0.94
9.201,-0.68,0.61,0.07,0.92
9.211,-0.66,0.61,0.05,0.90
9.220,-0.61,0.60,0.05,0.85
9.230,-0.58,0.62,0.07,0.85
9.240,-0.56,0.65,0.12,0.87
9.250,-0.54,0.67,0.10,0.87
9.260,-0.53,0.66,0.09,0.85
9.270,-0.52,0.66,0.08,0.84
9.280,-0.49,0.65,0.07,0.82
9.290,-0.50,0.65,0.05,0.82
9.300,-0.50,0.62,0.05,0.80
9.310,-0.50,0.63,0.14,0.81
9.320,-0.47,0.63,0.16,0.81
9.330,-0.48,0.60,0.25,0.81
9.340,-0.51,0.58,0.40,0.87
9.350,-0.50,0.55,0.45,0.87
9.360,-0.51,0.52,0.45,0.85
9.370,-0.47,0.51,0.44,0.82
9.380,-0.44,0.49,0.47,0.81
9.390,-0.37,0.51,0.41,0.76
9.400,-0.29,0.53,0.34,0.69
9.410,-0.21,0.57,0.19,0.64
9.419,-0.11,0.64,0.04,0.66
9.430,-0.03,0.68,-0.05,0.68
9.439,0.06,0.71,-0.12,0.72
9.449,0.11,0.72,-0.12,0.74
9.459,0.11,0.72,-0.06,0.73
9.469,0.03,0.75,0.01,0.75
9.479,-0.02,0.74,0.06,0.74
9.489,-0.05,0.71,0.13,0.72
9.499,-0.09,0.67,0.16,0.69
9.509,-0.11,0.65,0.19,0.68
9.519,-0.14,0.62,0.24,0.68
9.529,-0.11,0.62,0.22,0.66
9.539,-0.15,0.63,0.16,0.66
9.549,-0.12,0.65,0.16,0.68
9.559,-0.09,0.68,0.11,0.69
9.569,-0.12,0.69,0.10,0.70
9.579,-0.15,0.75,0.11,0.77
9.589,-0.11,0.79,0.20,0.82
9.598,-0.15,0.80,0.22,0.84
9.609,-0.19,0.78,0.25,0.84
9.618,-0.14,0.74,0.33,0.82
9.629,-0.11,0.71,0.38,0.81
9.638,-0.22,0.70,0.35,0.81
9.648,-0.41,0.77,0.31,0.93
9.658,-0.61,0.78,0.34,1.05
9.668,-0.74,0.74,0.27,1.08
9.678,-0.81,0.71,0.11,1.08
9.688,-0.72,0.72,-0.08,1.02
9.698,-0.61,0.79,-0.16,1.01
9.708,-0.54,0.85,-0.25,1.03
9.718,-0.90,0.89,-0.40,1.33
9.728,-1.03,0.86,-0.43,1.41
9.738,-0.78,0.72,-0.37,1.12
9.748,-0.63,0.58,-0.32,0.91
9.758,-0.50,0.56,-0.38,0.84
9.768,-0.26,0.44,-0.39,0.64
9.778,-0.14,0.38,-0.37,0.55
9.788,-0.31,0.32,-0.22,0.49
9.797,-0.53,0.34,0.02,0.63
9.807,-0.62,0.37,0.10,0.72
9.817,-0.52,0.33,0.07,0.63
9.827,-0.29,0.34,-0.07,0.46
9.837,-0.21,0.33,-0.18,0.43
9.847,-0.13,0.34,-0.35,0.50
9.857,0.17,0.46,-0.41,0.64
9.867,0.34,0.54,-0.48,0.80
9.877,0.53,0.68,-0.48,0.98
9.887,0.60,0.83,-0.37,1.09
9.897,0.53,0.95,-0.28,1.13
9.907,0.37,0.99,-0.21,1.07
9.917,0.21,1.00,-0.02,1.03
9.927,-0.02,1.06,0.18,1.07
9.937,-0.24,1.11,0.32,1.18
9.947,-0.41,1.08,0.45,1.24
9.957,-0.56,1.03,0.53,1.29
9.967,-0.70,0.95,0.59,1.32
9.976,-0.75,0.91,0.61,1.32
9.987,-0.76,0.85,0.60,1.29
9.996,-0.76,0.80,0.55,1.23
10.006,-0.76,0.75,0.54,1.19
10.016,-0.70,0.73,0.53,1.15
10.026,-0.67,0.67,0.56,1.10
10.036,-0.62,0.61,0.62,1.06
10.046,-0.63,0.54,0.63,1.04
10.056,-0.59,0.49,0.58,0.96
10.066,-0.58,0.42,0.71,1.01
10.076,-0.53,0.33,0.72,0.95
10.086,-0.42,0.29,0.53,0.74
10.096,-0.27,0.27,0.34,0.51
10.106,-0.12,0.27,0.25,0.38
10.116,0.01,0.26,0.21,0.33
10.126,0.12,0.27,0.16,0.33
10.136,0.27,0.31,0.09,0.42
10.146,0.36,0.35,-0.02,0.50
10.155,0.37,0.35,-0.06,0.52
10.165,0.38,0.34,-0.10,0.52
10.175,0.39,0.35,-0.13,0.54
10.185,0.37,0.35,-0.10,0.52
10.195,0.29,0.37,0.05,0.47
10.205,0.17,0.45,0.07,0.48
10.215,0.07,0.54,0.06,0.55
10.225,-0.01,0.65,0.03,0.65
10.235,-0.08,0.74,-0.04,0.75
10.245,-0.10,0.80,-0.14,0.82
10.255,-0.13,0.84,-0.16,0.86
10.265,-0.16,0.82,-0.15,0.85
10.275,-0.22,0.79,-0.04,0.82
10.285,-0.30,0.74,0.05,0.80
10.295,-0.34,0.75,0.09,0.83
10.305,-0.40,0.69,0.21,0.83
10.315,-0.50,0.61,0.39,0.88
10.325,-0.57,0.57,0.48,0.94
10.335,-0.64,0.56,0.44,0.95
10.345,-0.68,0.57,0.41,0.98
10.354,-0.65,0.58,0.32,0.93
10.365,-0.61,0.59,0.25,0.89
10.374,-0.54,0.60,0.13,0.82
10.384,-0.48,0.62,0.07,0.79
10.394,-0.41,0.64,0.08,0.77
10.404,-0.40,0.66,0.03,0.78
10.414,-0.40,0.67,-0.06,0.78
10.424,-0.39,0.69,-0.07,0.80
10.434,-0.43,0.66,-0.05,0.79
10.444,-0.52,0.64,-0.02,0.83
10.454,-0.59,0.61,0.03,0.85
10.464,-0.65,0.56,0.10,0.86
10.474,-0.74,0.50,0.16,0.91
10.484,-0.77,0.50,0.21,0.94
10.494,-0.82,0.49,0.27,0.99
10.504,-0.84,0.47,0.28,1.00
10.514,-0.80,0.44,0.26,0.95
10.524,-0.75,0.45,0.26,0.92
10.533,-0.72,0.48,0.26,0.90
10.544,-0.65,0.45,0.21,0.82
10.553,-0.62,0.45,0.31,0.83
10.563,-0.60,0.43,0.46,0.87
10.573,-0.61,0.44,0.50,0.90
10.583,-0.66,0.45,0.54,0.96
10.593,-0.65,0.50,0.63,1.03
10.603,-0.67,0.53,0.72,1.12
10.613,-0.68,0.49,0.65,1.06
10.623,-0.68,0.45,0.63,1.03
10.633,-0.66,0.45,0.66,1.04
10.643,-0.68,0.45,0.77,1.12
10.653,-0.68,0.43,0.85,1.17
10.663,-0.63,0.47,0.81,1.13
10.673,-0.60,0.50,0.65,1.02
10.683,-0.55,0.51,0.49,0.90
10.693,-0.52,0.51,0.36,0.81
10.703,-0.43,0.54,0.28,0.74
10.713,-0.39,0.62,0.37,0.82
10.722,-0.37,0.66,0.45,0.88
10.732,-0.19,0.73,0.05,0.76
10.742,-0.03,0.78,-0.43,0.89
10.752,0.21,0.80,-0.70,1.08
10.762,0.37,0.77,-0.83,1.20
10.772,0.49,0.70,-0.91,1.25
10.782,0.56,0.66,-0.97,1.30
10.792,0.60,0.68,-0.95,1.32
10.802,0.70,0.72,-0.86,1.32
10.812,0.66,0.66,-0.58,1.10
10.822,0.56,0.57,-0.43,0.91
10.832,0.44,0.50,-0.38,0.77
10.842,0.33,0.52,-0.37,0.72
10.852,0.30,0.51,-0.37,0.70
10.862,0.26,0.54,-0.40,0.72
10.872,0.29,0.63,-0.40,0.80
10.882,0.26,0.73,-0.33,0.84
10.892,0.28,0.79,-0.31,0.89
10.902,0.32,0.84,-0.25,0.93
10.911,0.28,0.87,-0.15,0.92
10.922,0.22,0.86,-0.10,0.89
10.931,0.15,0.90,-0.08,0.91
10.941,0.07,0.93,-0.03,0.94
10.951,-0.01,0.88,0.05,0.89
10.961,-0.10,0.79,0.18,0.81
10.971,-0.21,0.72,0.32,0.81
10.981,-0.29,0.67,0.36,0.81
10.991,-0.34,0.66,0.41,0.84
11.001,-0.37,0.60,0.41,0.81
11.011,-0.35,0.51,0.43,0.75
11.021,-0.37,0.45,0.42,0.72
11.031,-0.41,0.41,0.40,0.70
11.041,-0.38,0.42,0.37,0.68
11.051,-0.39,0.40,0.39,0.68
11.061,-0.41,0.37,0.46,0.72
11.071,-0.41,0.33,0.51,0.73
11.081,-0.40,0.34,0.47,0.70
11.090,-0.44,0.37,0.44,0.72
11.100,-0.39,0.40,0.25,0.62
11.110,-0.37,0.42,0.13,0.57
11.120,-0.35,0.42,0.18,0.57
11.130,-0.38,0.42,0.18,0.59
11.140,-0.43,0.47,0.18,0.66
11.150,-0.48,0.48,0.26,0.72
11.160,-0.51,0.45,0.33,0.76
11.170,-0.58,0.38,0.38,0.79
11.180,-0.62,0.38,0.32,0.79
11.190,-0.57,0.42,0.20,0.73
11.200,-0.52,0.44,0.02,0.68
11.210,-0.47,0.40,-0.16,0.64
11.220,-0.42,0.38,-0.20,0.60
11.230,-0.32,0.40,-0.15,0.54
11.240,-0.33,0.41,-0.01,0.52
11.250,-0.35,0.36,0.12,0.52
11.260,-0.36,0.31,0.12,0.49
11.270,-0.38,0.28,0.24,0.53
11.280,-0.37,0.25,0.28,0.53
11.289,-0.33,0.26,0.27,0.50
11.300,-0.24,0.25,0.21,0.41
11.309,-0.20,0.24,0.12,0.33
11.319,-0.13,0.24,0.14,0.30
11.329,-0.06,0.27,0.17,0.32
11.339,-0.01,0.27,0.18,0.33
11.349,0.04,0.26,0.31,0.41
11.359,0.03,0.30,0.46,0.54
11.369,0.07,0.37,0.35,0.52
11.379,0.16,0.51,0.05,0.54
11.389,0.24,0.57,-0.19,0.65
11.399,0.31,0.58,-0.36,0.75
11.409,0.37,0.57,-0.57,0.89
11.419,0.40,0.60,-0.54,0.90
11.429,0.47,0.70,-0.28,0.89
11.439,0.30,0.71,-0.06,0.77
11.449,0.09,0.52,0.08,0.53
11.459,0.02,0.40,0.11,0.41
11.468,-0.06,0.38,0.14,0.41
11.479,-0.09,0.37,0.30,0.49
11.488,-0.16,0.30,0.41,0.53
11.498,-0.12,0.28,0.33,0.45
11.508,-0.08,0.32,0.29,0.44
11.518,0.00,0.38,0.27,0.47
11.528,0.08,0.38,0.23,0.45
11.538,0.14,0.39,0.11,0.43
11.548,0.15,0.44,0.03,0.47
11.558,0.18,0.49,-0.03,0.53
11.568,0.16,0.56,0.09,0.59
11.578,0.10,0.57,0.21,0.62
11.588,0.01,0.54,0.28,0.61
11.598,-0.10,0.53,0.32,0.63
11.608,-0.20,0.56,0.31,0.67
11.618,-0.27,0.56,0.24,0.67
11.628,-0.36,0.54,0.21,0.68
11.638,-0.45,0.52,0.18,0.71
11.648,-0.48,0.49,0.02,0.68
11.658,-0.51,0.43,-0.01,0.67
11.667,-0.51,0.39,0.06,0.65
11.677,-0.55,0.39,0.15,0.69
11.687,-0.59,0.34,0.24,0.72
11.697,-0.60,0.31,0.20,0.71
11.707,-0.59,0.29,0.08,0.67
11.717,-0.61,0.31,-0.05,0.68
11.727,-0.58,0.33,-0.11,0.67
11.737,-0.44,0.41,-0.28,0.66
11.747,-0.35,0.45,-0.44,0.72
11.757,-0.31,0.48,-0.48,0.75
11.767,-0.30,0.47,-0.39,0.69
11.777,-0.29,0.40,-0.39,0.62
11.787,-0.28,0.38,-0.40,0.62
11.797,-0.26,0.35,-0.27,0.51
11.807,-0.29,0.34,-0.17,0.48
11.817,-0.36,0.27,-0.06,0.46
11.826,-0.39,0.22,-0.06,0.45
11.836,-0.35,0.24,-0.08,0.43
11.846,-0.32,0.24,-0.11,0.42
11.856,-0.31,0.26,-0.19,0.44
11.866,-0.29,0.24,-0.16,0.41
11.876,-0.24,0.24,-0.11,0.35
11.886,-0.21,0.21,-0.06,0.31
11.896,-0.18,0.27,0.01,0.32
11.906,-0.15,0.30,0.18,0.37
11.916,-0.11,0.35,0.29,0.47
11.926,-0.04,0.36,0.34,0.50
11.936,0.05,0.35,0.34,0.49
11.946,0.12,0.35,0.28,0.47
11.956,0.19,0.35,0.26,0.47
11.966,0.26,0.32,0.28,0.50
11.976,0.30,0.33,0.27,0.51
11.986,0.34,0.35,0.27,0.56
11.996,0.34,0.39,0.31,0.60
12.005,0.31,0.43,0.30,0.61
12.016,0.31,0.46,0.25,0.61
12.025,0.32,0.51,0.07,0.61
12.035,0.34,0.56,-0.13,0.67
12.045,0.38,0.62,-0.31,0.79
12.055,0.38,0.65,-0.48,0.89
12.065,0.28,0.57,-0.51,0.81
12.075,0.20,0.54,-0.31,0.66
12.085,0.08,0.54,-0.05,0.55
12.095,-0.13,0.45,0.14,0.49
12.105,-0.31,0.32,0.28,0.53
12.115,-0.43,0.29,0.29,0.60
12.125,-0.52,0.32,0.28,0.67
12.135,-0.59,0.32,0.28,0.72
12.145,-0.57,0.25,0.31,0.70
12.155,-0.52,0.15,0.32,0.63
12.165,-0.45,0.13,0.48,0.67
12.175,-0.47,0.18,0.78,0.92
12.185,-0.49,0.20,0.92,1.06
12.195,-0.49,0.26,0.84,1.01
12.205,-0.42,0.35,0.54,0.77
12.215,-0.33,0.46,0.24,0.61
12.224,-0.22,0.52,0.00,0.57
12.234,-0.08,0.54,-0.09,0.56
12.244,0.01,0.51,-0.15,0.53
12.254,0.10,0.51,-0.19,0.55
12.264,0.06,0.54,-0.06,0.55
12.274,-0.11,0.53,0.11,0.56
12.284,-0.26,0.46,0.22,0.57
12.294,-0.36,0.41,0.22,0.59
12.304,-0.42,0.37,0.09,0.57
12.314,-0.45,0.33,-0.07,0.56
12.324,-0.45,0.32,-0.22,0.59
12.334,-0.41,0.27,-0.36,0.61
12.344,-0.38,0.25,-0.38,0.59
12.354,-0.33,0.33,-0.29,0.55
12.364,-0.34,0.37,-0.22,0.55
12.374,-0.40,0.37,-0.18,0.57
12.384,-0.37,0.40,-0.13,0.56
12.394,-0.34,0.40,-0.07,0.53
12.403,-0.32,0.42,-0.01,0.52
12.414,-0.30,0.49,-0.01,0.57
12.423,-0.21,0.53,-0.14,0.59
12.433,-0.13,0.53,-0.27,0.61
12.443,-0.10,0.50,-0.10,0.52
12.453,-0.04,0.49,0.15,0.51
12.463,-0.01,0.44,0.35,0.56
12.473,0.05,0.45,0.49,0.67
12.483,0.10,0.47,0.57,0.74
12.493,0.21,0.45,0.41,0.64
12.503,0.31,0.36,0.20,0.51
12.513,0.43,0.31,-0.02,0.53
12.523,0.60,0.34,-0.17,0.71
12.533,0.70,0.35,-0.27,0.83
12.543,0.76,0.35,-0.29,0.89
12.553,0.68,0.37,-0.20,0.80
12.563,0.59,0.40,-0.16,0.73
12.573,0.39,0.42,-0.06,0.57
12.583,0.19,0.45,0.16,0.52
12.593,0.05,0.50,0.33,0.60
12.602,-0.14,0.44,0.50,0.68
12.613,-0.22,0.40,0.43,0.63
12.622,-0.16,0.52,0.20,0.58
12.632,-0.11,0.53,-0.12,0.55
12.642,-0.06,0.40,-0.18,0.44
12.652,0.03,0.32,-0.09,0.34
12.662,0.03,0.32,0.09,0.33
12.672,-0.01,0.33,0.28,0.43
12.682,-0.05,0.32,0.49,0.59
12.692,-0.05,0.27,0.75,0.80
12.702,-0.02,0.20,0.72,0.75
12.712,-0.03,0.18,0.66,0.68
12.722,-0.07,0.13,0.66,0.67
12.732,-0.05,0.18,0.73,0.75
12.742,-0.06,0.35,0.82,0.90
12.752,-0.11,0.51,0.85,1.00
12.762,-0.10,0.64,0.78,1.01
12.772,-0.06,0.68,0.59,0.90
12.781,0.03,0.72,0.33,0.80
12.791,0.13,0.78,0.10,0.80
12.801,0.09,0.86,0.04,0.87
12.811,0.18,0.99,0.04,1.01
12.821,0.12,1.02,0.19,1.04
12.831,-0.04,1.00,0.48,1.11
12.841,-0.28,0.96,0.86,1.32
12.851,-0.48,1.01,1.17,1.62
12.861,-0.62,1.06,1.19,1.71
12.871,-0.65,1.08,0.92,1.56
12.881,-0.67,1.01,0.59,1.35
12.891,-0.53,0.94,0.24,1.11
12.901,-0.26,0.93,-0.06,0.97
12.911,-0.09,0.99,-0.20,1.01
12.921,0.00,1.03,-0.24,1.06
12.931,0.03,1.00,-0.14,1.02
12.941,0.02,0.91,-0.04,0.91
12.951,-0.01,0.81,0.11,0.82
12.961,-0.00,0.69,0.32,0.76
12.971,0.02,0.55,0.46,0.72
12.980,0.04,0.44,0.54,0.70
12.990,0.07,0.43,0.61,0.75
13.000,0.07,0.50,0.65,0.82
13.010,0.09,0.56,0.63,0.85
13.020,0.16,0.57,0.41,0.73
13.030,0.25,0.63,0.08,0.68
13.040,0.40,0.68,-0.37,0.88
13.050,0.73,0.70,-0.97,1.40
13.060,0.97,0.71,-1.26,1.74
13.070,1.25,0.75,-1.31,1.96
13.080,1.28,0.71,-1.06,1.81
13.090,1.28,0.61,-0.61,1.55
13.100,1.21,0.62,0.15,1.37
13.110,0.57,0.44,0.87,1.13
13.120,0.17,0.24,1.12,1.16
13.130,0.02,0.25,0.99,1.03
13.139,-0.10,0.24,0.60,0.65
13.150,-0.12,0.15,0.01,0.19
13.159,-0.03,0.07,-0.63,0.64
13.170,0.15,0.11,-1.02,1.04
13.179,0.43,0.26,-1.05,1.17
13.189,0.76,0.53,-0.75,1.19
13.199,0.84,0.65,-0.27,1.10
13.209,0.80,0.58,-0.11,1.00
13.219,0.68,0.36,0.02,0.77
13.229,0.66,0.22,-0.02,0.69
13.239,0.50,0.13,-0.02,0.51
13.249,0.31,0.02,0.10,0.32
13.259,0.14,0.01,0.15,0.20
13.269,-0.03,0.00,0.22,0.22
13.279,-0.10,0.00,0.24,0.26
13.289,-0.16,0.03,0.20,0.25
13.299,-0.19,0.02,0.17,0.25
13.309,-0.16,0.07,0.09,0.19
13.318,-0.05,0.11,-0.09,0.15
13.329,0.05,0.16,-0.27,0.32
13.338,0.14,0.26,-0.34,0.45
13.348,0.10,0.33,-0.29,0.45
13.358,0.01,0.38,-0.28,0.47
13.368,-0.07,0.40,-0.34,0.54
13.378,-0.08,0.38,-0.38,0.54
13.388,-0.10,0.29,-0.35,0.46
13.398,-0.12,0.14,-0.21,0.28
13.408,-0.11,0.06,-0.02,0.13
13.418,-0.10,0.04,0.21,0.24
13.428,-0.14,-0.02,0.34,0.37
13.438,-0.26,-0.08,0.47,0.55
13.448,-0.35,-0.18,0.57,0.69
13.458,-0.37,-0.30,0.71,0.85
13.468,-0.43,-0.36,0.90,1.06
13.478,-0.51,-0.39,1.11,1.29
13.488,-0.62,-0.44,1.43,1.62
13.498,-0.77,-0.46,1.86,2.06
13.508,-0.94,-0.35,2.25,2.46
13.518,-0.86,0.03,2.01,2.19
13.528,-0.80,0.21,1.42,1.65
13.537,-0.68,0.27,0.71,1.02
13.547,-0.43,0.34,-0.09,0.55
13.557,-0.17,0.45,-0.81,0.94
13.567,0.19,0.60,-1.16,1.32
13.577,0.53,0.81,-0.97,1.37
13.587,0.58,0.97,-0.74,1.35
13.597,0.58,0.92,-0.44,1.17
13.607,0.37,0.86,-0.21,0.96
13.617,0.14,0.73,-0.22,0.78
13.627,0.08,0.52,-0.27,0.60
13.637,0.06,0.28,-0.28,0.41
13.647,0.10,0.03,-0.22,0.25
13.657,0.16,-0.08,-0.25,0.31
13.667,0.19,-0.06,-0.31,0.36
13.677,0.23,-0.03,-0.38,0.44
13.687,0.25,-0.07,-0.36,0.45
13.696,0.26,-0.08,-0.37,0.46
13.707,0.30,-0.03,-0.36,0.47
13.716,0.46,0.09,-0.31,0.56
13.727,0.66,0.22,-0.24,0.74
13.736,0.83,0.21,-0.25,0.89
13.746,0.90,0.13,-0.25,0.95
13.756,0.83,0.18,-0.22,0.88
13.766,0.71,0.37,-0.19,0.83
13.776,0.48,0.60,-0.17,0.78
13.786,0.27,0.73,-0.12,0.79
13.796,0.11,0.72,-0.10,0.74
13.806,0.06,0.60,-0.11,0.61
13.816,0.03,0.46,-0.08,0.47
13.826,0.01,0.36,-0.04,0.36
13.836,-0.00,0.25,-0.03,0.25
13.846,-0.00,0.16,-0.04,0.17
13.856,-0.04,0.11,-0.04,0.13
13.866,-0.07,0.06,-0.03,0.10
13.876,-0.08,0.04,-0.03,0.10
13.886,-0.12,0.01,0.06,0.13
13.895,-0.16,-0.02,0.12,0.20
13.905,-0.18,-0.06,0.22,0.29
13.915,-0.17,-0.10,0.21,0.29
13.925,-0.18,-0.15,0.19,0.30
13.935,-0.19,-0.22,0.17,0.34
13.945,-0.20,-0.29,0.16,0.39
13.955,-0.18,-0.34,0.21,0.44
13.965,-0.21,-0.35,0.22,0.46
13.975,-0.34,-0.33,0.22,0.52
13.985,-0.37,-0.31,0.15,0.51
13.995,-0.32,-0.33,0.17,0.49
14.005,-0.29,-0.39,0.23,0.54
14.015,-0.24,-0.41,0.28,0.55
14.025,-0.19,-0.42,0.25,0.53
14.035,-0.20,-0.44,0.24,0.54
14.045,-0.24,-0.43,0.15,0.51
14.055,-0.24,-0.41,0.13,0.49
14.065,-0.28,-0.35,0.09,0.46
14.075,-0.30,-0.33,0.11,0.46
14.085,-0.27,-0.38,0.12,0.48
14.094,-0.16,-0.38,0.07,0.42
14.105,-0.09,-0.39,0.11,0.42
14.114,0.06,-0.37,0.08,0.39
14.124,0.08,-0.39,0.09,0.41
14.134,-0.00,-0.33,0.04,0.34
14.144,-0.08,-0.27,0.02,0.29
14.154,-0.17,-0.24,0.05,0.30
14.164,-0.15,-0.24,0.03,0.28
14.174,-0.11,-0.24,0.03,0.26
14.184,-0.05,-0.27,-0.03,0.28
14.194,-0.00,-0.27,-0.02,0.27
14.204,-0.00,-0.25,0.02,0.25
14.214,0.01,-0.21,-0.02,0.21
14.224,0.01,-0.20,-0.10,0.22
14.234,-0.04,-0.18,-0.03,0.19
14.244,0.01,-0.21,0.02,0.21
14.254,-0.08,-0.24,0.01,0.26
14.264,-0.19,-0.22,0.14,0.32
14.273,-0.19,-0.17,0.24,0.35
14.284,-0.10,-0.18,0.12,0.24
14.293,0.05,-0.25,-0.05,0.26
14.303,0.16,-0.25,-0.10,0.32
14.313,0.26,-0.27,-0.17,0.41
14.323,0.31,-0.30,-0.20,0.47
14.333,0.34,-0.35,-0.10,0.50
14.343,0.41,-0.35,-0.07,0.54
14.353,0.43,-0.35,-0.10,0.56
14.363,0.35,-0.33,-0.06,0.48
14.373,0.16,-0.29,0.06,0.34
14.383,0.01,-0.28,0.04,0.29
14.393,0.02,-0.26,-0.05,0.27
14.403,0.03,-0.24,-0.22,0.32
14.413,0.03,-0.26,-0.37,0.45
14.423,0.02,-0.39,-0.36,0.53
14.433,-0.02,-0.45,-0.32,0.55
14.443,-0.00,-0.32,-0.24,0.40
14.452,0.01,-0.24,-0.15,0.29
14.463,-0.07,-0.28,0.03,0.29
14.472,-0.22,-0.32,0.03,0.39
14.482,-0.29,-0.39,0.01,0.49
14.492,-0.29,-0.44,-0.14,0.54
14.502,-0.23,-0.43,-0.27,0.56
14.512,-0.04,-0.43,-0.55,0.71
14.522,0.03,-0.37,-0.57,0.68
14.532,0.07,-0.34,-0.52,0.62
14.542,0.16,-0.37,-0.59,0.72
14.552,0.18,-0.40,-0.54,0.69
14.562,0.10,-0.43,-0.40,0.60
14.572,0.00,-0.51,-0.24,0.56
14.582,-0.06,-0.60,-0.12,0.61
14.592,-0.10,-0.73,0.09,0.74
14.602,-0.10,-0.74,0.14,0.76
14.612,-0.13,-0.75,0.13,0.77
14.622,-0.12,-0.77,-0.04,0.78
14.632,-0.04,-0.78,-0.21,0.81
14.642,0.03,-0.80,-0.26,0.84
14.651,0.07,-0.84,-0.21,0.87
14.661,0.10,-0.83,-0.09,0.84
14.671,0.13,-0.73,-0.07,0.75
14.681,0.18,-0.64,-0.16,0.68
14.691,0.23,-0.65,-0.27,0.74
14.701,0.24,-0.69,-0.30,0.79
14.711,0.26,-0.65,-0.27,0.75
14.721,0.27,-0.64,-0.15,0.71
14.731,0.21,-0.59,-0.06,0.63
14.741,0.13,-0.50,0.03,0.52
14.751,0.10,-0.45,0.04,0.47
14.761,0.00,-0.44,0.05,0.44
14.771,-0.00,-0.36,-0.07,0.36
14.781,0.06,-0.32,-0.26,0.42
14.791,0.14,-0.29,-0.49,0.58
14.801,0.20,-0.30,-0.53,0.64
14.810,0.21,-0.31,-0.42,0.56
14.821,0.19,-0.32,-0.34,0.50
14.830,0.07,-0.33,-0.17,0.38
14.841,-0.02,-0.33,-0.01,0.33
14.850,-0.11,-0.34,0.15,0.39
14.860,-0.20,-0.31,0.24,0.44
14.870,-0.25,-0.29,0.10,0.39
14.880,-0.24,-0.25,-0.10,0.36
14.890,-0.27,-0.28,-0.28,0.49
14.900,-0.25,-0.33,-0.41,0.58
14.910,-0.24,-0.33,-0.40,0.57
14.920,-0.24,-0.28,-0.29,0.47
14.930,-0.29,-0.29,-0.19,0.45
14.940,-0.35,-0.31,-0.13,0.49
14.950,-0.42,-0.37,-0.10,0.56
14.960,-0.47,-0.47,-0.01,0.66
14.970,-0.49,-0.52,-0.04,0.71
14.980,-0.46,-0.50,-0.18,0.70
14.990,-0.36,-0.50,-0.39,0.73
15.000,-0.29,-0.55,-0.51,0.80
15.009,-0.20,-0.57,-0.60,0.85
15.020,-0.14,-0.61,-0.62,0.88
15.030,-0.10,-0.63,-0.50,0.81
15.040,-0.07,-0.66,-0.42,0.78
15.049,-0.05,-0.72,-0.27,0.77
15.059,-0.02,-0.74,-0.23,0.77
15.069,0.07,-0.72,-0.26,0.77
15.079,0.13,-0.71,-0.37,0.81
15.089,0.22,-0.70,-0.49,0.88
15.099,0.32,-0.71,-0.66,1.02
15.109,0.42,-0.70,-0.79,1.14
15.119,0.50,-0.72,-0.65,1.09
15.129,0.57,-0.66,-0.58,1.05
15.139,0.58,-0.64,-0.46,0.98
15.149,0.54,-0.68,-0.26,0.91
15.159,0.47,-0.71,-0.04,0.85
15.169,0.45,-0.70,0.09,0.84
15.179,0.40,-0.67,0.06,0.79
15.188,0.41,-0.63,0.06,0.75
15.199,0.40,-0.61,0.06,0.73
15.208,0.38,-0.54,0.12,0.67
15.219,0.44,-0.51,0.19,0.70
15.228,0.46,-0.43,0.10,0.64
15.238,0.48,-0.33,0.02,0.58
15.248,0.53,-0.26,-0.05,0.59
15.258,0.62,-0.17,-0.18,0.67
15.268,0.75,-0.07,-0.36,0.83
15.278,0.80,-0.02,-0.44,0.91
15.288,0.75,-0.01,-0.38,0.84
15.298,0.65,-0.11,-0.17,0.68
15.308,0.48,-0.23,-0.01,0.54
15.318,0.28,-0.30,0.17,0.45
15.328,0.18,-0.30,0.30,0.46
15.338,0.08,-0.41,0.27,0.50
15.348,0.00,-0.52,0.09,0.53
15.358,0.03,-0.58,-0.09,0.59
15.368,0.09,-0.64,-0.30,0.71
15.378,0.20,-0.63,-0.44,0.79
15.387,0.26,-0.65,-0.51,0.87
15.398,0.27,-0.71,-0.44,0.88
15.407,0.25,-0.77,-0.37,0.89
15.417,0.14,-0.83,-0.14,0.86
15.427,-0.06,-0.94,0.22,0.96
15.437,-0.20,-1.00,0.47,1.12
15.447,-0.26,-1.00,0.47,1.13
15.457,-0.28,-0.95,0.43,1.08
15.467,-0.30,-0.85,0.32,0.95
15.477,-0.25,-0.76,0.03,0.80
15.487,-0.20,-0.73,-0.13,0.77
15.497,-0.15,-0.68,-0.11,0.70
15.507,-0.08,-0.57,-0.08,0.58
15.517,-0.05,-0.51,-0.16,0.54
15.527,-0.05,-0.50,-0.21,0.54
15.537,-0.05,-0.46,-0.23,0.52
15.547,-0.09,-0.49,-0.32,0.60
15.557,-0.04,-0.56,-0.45,0.72
15.567,-0.03,-0.53,-0.50,0.73
15.577,-0.05,-0.54,-0.48,0.72
15.586,-0.04,-0.59,-0.40,0.71
15.597,-0.02,-0.57,-0.29,0.64
15.606,0.01,-0.55,-0.21,0.59
15.616,0.08,-0.59,-0.16,0.62
15.626,0.15,-0.64,-0.16,0.68
15.636,0.23,-0.66,-0.26,0.74
15.646,0.30,-0.62,-0.35,0.78
15.656,0.35,-0.66,-0.26,0.79
15.666,0.36,-0.67,-0.08,0.77
15.676,0.32,-0.65,0.15,0.74
15.686,0.22,-0.61,0.33,0.73
15.696,0.14,-0.57,0.45,0.74
15.706,0.08,-0.51,0.45,0.68
15.716,0.08,-0.48,0.32,0.58
15.726,0.13,-0.43,0.14,0.47
15.736,0.23,-0.35,-0.02,0.42
15.745,0.34,-0.27,-0.30,0.52
15.756,0.41,-0.20,-0.40,0.61
15.765,0.44,-0.13,-0.50,0.68
15.776,0.38,-0.07,-0.54,0.66
15.785,0.30,-0.12,-0.47,0.57
15.795,0.20,-0.18,-0.29,0.40
15.805,0.09,-0.18,-0.16,0.26
15.815,0.01,-0.16,-0.14,0.21
15.825,-0.09,-0.15,0.03,0.18
15.835,-0.15,-0.14,0.13,0.25
15.845,-0.18,-0.16,0.11,0.26
15.855,-0.14,-0.18,0.04,0.23
15.865,-0.05,-0.07,0.06,0.11
15.875,0.06,0.04,-0.00,0.07
15.885,0.20,0.07,-0.21,0.30
15.895,0.33,0.04,-0.33,0.47
15.905,0.43,0.09,-0.33,0.55
15.915,0.48,0.14,-0.35,0.61
15.925,0.45,0.21,-0.23,0.55
15.935,0.35,0.24,-0.05,0.43
15.944,0.24,0.18,0.12,0.33
15.955,0.15,0.12,0.25,0.31
15.964,0.04,0.14,0.36,0.38
15.974,-0.04,0.08,0.32,0.33
15.984,-0.08,0.02,0.31,0.32
15.994,-0.09,-0.06,0.26,0.28
16.004,-0.07,-0.12,0.16,0.21
16.014,-0.06,-0.13,0.19,0.24
16.024,-0.00,-0.07,0.14,0.16
16.034,0.07,-0.02,-0.04,0.08
16.044,0.10,-0.04,-0.19,0.21
16.054,0.17,-0.01,-0.25,0.30
16.064,0.24,0.03,-0.36,0.43
16.074,0.24,0.00,-0.40,0.46
16.084,0.22,0.01,-0.27,0.34
16.094,0.14,-0.01,0.00,0.14
16.104,0.10,-0.02,0.25,0.27
16.114,0.03,-0.02,0.47,0.47
16.124,-0.03,0.00,0.64,0.64
16.134,-0.05,-0.03,0.51,0.51
16.144,-0.06,-0.12,0.38,0.41
16.154,0.03,-0.14,0.23,0.27
16.163,0.10,-0.10,0.13,0.19
16.174,0.11,-0.10,0.14,0.20
16.183,0.11,-0.10,0.19,0.24
16.193,0.11,-0.04,0.33,0.35
16.203,0.07,0.05,0.44,0.45
16.213,-0.03,-0.00,0.64,0.64
16.223,-0.05,-0.07,0.65,0.66
16.233,0.01,-0.07,0.56,0.57
16.243,0.06,-0.05,0.33,0.33
16.253,0.09,-0.05,0.20,0.23
16.263,0.14,-0.10,0.08,0.19
16.273,0.22,-0.11,0.04,0.25
16.283,0.27,-0.11,0.03,0.29
16.293,0.30,-0.12,0.01,0.33
16.303,0.32,-0.16,0.08,0.37
16.313,0.34,-0.23,0.11,0.43
16.323,0.40,-0.25,0.11,0.49
16.333,0.36,-0.24,0.20,0.48
16.342,0.35,-0.30,0.30,0.55
16.352,0.32,-0.33,0.41,0.62
16.362,0.33,-0.31,0.43,0.63
16.372,0.37,-0.26,0.42,0.61
16.382,0.42,-0.25,0.36,0.61
16.392,0.50,-0.26,0.22,0.60
16.402,0.58,-0.22,0.16,0.64
16.412,0.64,-0.10,0.07,0.65
16.422,0.62,0.07,0.01,0.63
16.432,0.62,0.22,0.09,0.66
16.442,0.58,0.31,0.21,0.69
16.452,0.50,0.35,0.23,0.65
16.462,0.40,0.35,0.30,0.60
16.472,0.33,0.38,0.21,0.55
16.482,0.29,0.38,0.17,0.51
16.492,0.30,0.38,-0.03,0.49
16.502,0.36,0.40,-0.31,0.62
16.512,0.43,0.40,-0.56,0.81
16.521,0.52,0.37,-0.66,0.92
16.532,0.54,0.28,-0.52,0.80
16.541,0.56,0.18,-0.42,0.72
16.552,0.51,0.08,-0.31,0.60
16.561,0.44,0.01,-0.04,0.44
16.571,0.37,-0.08,0.21,0.43
16.581,0.34,-0.19,0.28,0.48
16.591,0.36,-0.27,0.21,0.49
16.601,0.38,-0.33,0.19,0.53
16.611,0.41,-0.31,0.17,0.54
16.621,0.40,-0.26,0.32,0.58
16.631,0.38,-0.12,0.43,0.59
16.641,0.32,-0.02,0.47,0.57
16.651,0.27,-0.00,0.43,0.51
16.661,0.24,-0.02,0.42,0.48
16.671,0.23,-0.01,0.37,0.43
16.680,0.16,0.04,0.33,0.37
16.691,0.15,0.14,0.27,0.34
16.700,0.14,0.24,0.19,0.34
16.711,0.10,0.29,0.19,0.37
16.720,0.09,0.30,0.12,0.34
16.730,0.09,0.31,0.06,0.33
16.740,0.13,0.33,-0.06,0.36
16.750,0.17,0.30,-0.05,0.35
16.760,0.29,0.24,-0.12,0.40
16.770,0.40,0.19,-0.13,0.46
16.780,0.48,0.13,-0.07,0.51
16.790,0.54,0.07,-0.10,0.56
16.800,0.59,0.03,-0.18,0.61
16.810,0.65,-0.03,-0.31,0.72
16.820,0.71,-0.11,-0.36,0.81
16.830,0.82,-0.24,-0.26,0.89
16.840,0.83,-0.38,-0.06,0.91
16.850,0.82,-0.43,0.14,0.94
16.860,0.79,-0.42,0.24,0.93
16.870,0.80,-0.38,0.20,0.91
16.879,0.84,-0.38,0.09,0.93
16.890,0.93,-0.43,-0.10,1.02
16.899,1.02,-0.47,-0.24,1.15
16.909,1.11,-0.45,-0.21,1.22
16.919,1.18,-0.38,-0.00,1.24
16.929,1.15,-0.30,0.26,1.22
16.939,1.10,-0.23,0.40,1.19
16.949,1.04,-0.16,0.48,1.16
16.959,1.06,-0.11,0.47,1.17
16.969,1.06,-0.11,0.41,1.14
16.979,1.06,-0.06,0.39,1.14
16.989,1.05,0.03,0.47,1.15
16.999,1.06,0.12,0.51,1.19
17.009,1.12,0.28,0.46,1.24
17.019,1.15,0.41,0.40,1.29
17.029,1.17,0.48,0.37,1.32
17.039,1.12,0.47,0.37,1.27
17.049,1.07,0.44,0.37,1.22
17.059,1.00,0.42,0.38,1.14
17.069,0.94,0.34,0.47,1.10
17.078,0.81,0.28,0.52,1.00
17.088,0.70,0.23,0.57,0.93
17.098,0.55,0.20,0.65,0.88
17.108,0.39,0.17,0.77,0.88
17.118,0.25,0.12,0.87,0.91
17.128,0.13,0.09,0.86,0.88
17.138,0.06,0.08,0.79,0.80
17.148,0.05,0.09,0.69,0.70
17.158,0.09,0.10,0.52,0.54
17.168,0.17,0.10,0.32,0.37
17.178,0.23,0.12,0.16,0.31
17.188,0.21,0.14,0.12,0.28
17.198,0.19,0.12,0.21,0.31
17.208,0.09,0.12,0.30,0.33
17.218,-0.04,0.06,0.46,0.46
17.228,-0.15,-0.02,0.60,0.61
17.238,-0.25,-0.08,0.61,0.67
17.248,-0.32,-0.15,0.53,0.64
17.257,-0.35,-0.18,0.38,0.54
17.267,-0.28,-0.18,0.13,0.35
17.277,-0.12,-0.14,-0.13,0.22
17.287,0.08,-0.08,-0.33,0.35
17.297,0.27,-0.04,-0.55,0.61
17.307,0.43,-0.03,-0.74,0.85
17.317,0.52,-0.04,-0.71,0.88
17.327,0.60,-0.03,-0.54,0.81
17.337,0.64,-0.07,-0.40,0.75
17.347,0.63,-0.10,-0.29,0.70
17.357,0.61,-0.12,-0.27,0.68
17.367,0.65,-0.13,-0.33,0.74
17.377,0.70,-0.08,-0.49,0.86
17.387,0.79,-0.06,-0.74,1.08
17.397,0.88,-0.05,-0.83,1.21
17.407,0.93,-0.02,-0.80,1.23
17.417,0.89,-0.05,-0.60,1.07
17.427,0.81,-0.05,-0.35,0.88
17.436,0.64,-0.03,0.04,0.64
17.447,0.48,-0.04,0.34,0.59
17.456,0.35,-0.08,0.45,0.58
17.467,0.24,-0.11,0.49,0.56
17.476,0.13,-0.12,0.49,0.52
17.486,0.10,-0.10,0.43,0.46
17.496,0.10,-0.04,0.29,0.31
17.506,0.16,0.07,0.17,0.25
17.516,0.23,0.15,0.17,0.33
17.526,0.29,0.21,0.16,0.40
17.536,0.32,0.23,0.21,0.45
17.546,0.34,0.27,0.22,0.49
17.556,0.31,0.30,0.16,0.46
17.566,0.29,0.26,0.09,0.40
17.576,0.24,0.15,0.17,0.33
17.586,0.18,0.09,0.17,0.27
17.596,0.15,0.08,0.20,0.27
17.606,0.08,0.09,0.30,0.33
17.616,0.00,0.10,0.40,0.41
17.626,-0.07,0.09,0.37,0.39
17.635,-0.12,0.02,0.31,0.33
17.646,-0.10,-0.04,0.15,0.19
17.655,-0.01,0.01,-0.14,0.14
17.665,0.06,0.03,-0.22,0.23
17.675,0.14,0.02,-0.20,0.24
17.685,0.20,0.00,-0.24,0.31
17.695,0.23,-0.01,-0.20,0.30
17.705,0.19,0.00,-0.04,0.20
17.715,0.09,0.01,0.19,0.21
17.725,-0.00,-0.07,0.37,0.37
17.735,-0.07,-0.08,0.49,0.50
17.745,-0.12,-0.12,0.54,0.56
17.755,-0.11,-0.11,0.45,0.47
17.765,-0.08,-0.16,0.27,0.32
17.775,0.00,-0.16,0.08,0.18
17.785,0.13,-0.11,-0.01,0.17
17.795,0.19,-0.07,-0.04,0.21
17.805,0.24,-0.03,-0.05,0.24
17.815,0.18,-0.02,0.01,0.18
17.825,0.14,0.04,-0.03,0.15
17.834,0.06,0.10,-0.11,0.16
17.845,0.00,0.13,-0.20,0.24
17.854,-0.09,0.17,-0.24,0.30
17.864,-0.14,0.23,-0.30,0.40
17.874,-0.19,0.30,-0.41,0.54
17.884,-0.23,0.36,-0.34,0.55
17.894,-0.34,0.40,-0.23,0.57
17.904,-0.45,0.39,-0.06,0.60
17.914,-0.53,0.41,0.00,0.67
17.924,-0.60,0.40,0.07,0.72
17.934,-0.68,0.36,0.12,0.78
17.944,-0.65,0.27,0.02,0.70
17.954,-0.57,0.21,-0.15,0.63
17.964,-0.41,0.21,-0.26,0.53
17.974,-0.29,0.14,-0.24,0.40
17.984,-0.23,0.09,-0.23,0.33
17.994,-0.17,0.08,-0.20,0.28
18.004,-0.10,0.11,-0.18,0.23
18.013,0.01,0.13,-0.23,0.27
18.023,0.14,0.13,-0.30,0.35
18.033,0.26,0.09,-0.40,0.49
18.043,0.37,0.05,-0.51,0.64
18.053,0.49,0.00,-0.64,0.81
18.063,0.61,-0.02,-0.62,0.87
18.073,0.59,-0.09,-0.44,0.74
18.083,0.61,-0.09,-0.34,0.71
18.093,0.55,-0.13,-0.15,0.58
18.103,0.45,-0.16,-0.05,0.48
18.113,0.37,-0.24,0.08,0.45
18.123,0.27,-0.32,0.23,0.48
18.133,0.13,-0.35,0.50,0.63
18.143,0.02,-0.36,0.75,0.83
18.153,-0.07,-0.36,0.76,0.84
18.163,-0.11,-0.33,0.71,0.79
18.173,-0.12,-0.36,0.77,0.86
18.183,-0.14,-0.37,0.82,0.91
18.192,-0.19,-0.36,0.95,1.04
18.203,-0.19,-0.31,1.02,1.09
18.212,-0.05,-0.19,0.78,0.80
18.222,0.16,-0.02,0.44,0.47
18.232,0.34,0.16,0.10,0.39
18.242,0.54,0.32,-0.22,0.66
18.252,0.71,0.49,-0.47,0.98
18.262,0.83,0.70,-0.62,1.26
18.272,0.83,0.90,-0.73,1.43
18.282,0.86,0.97,-0.75,1.50
18.292,0.77,0.90,-0.63,1.35
18.302,0.60,0.75,-0.49,1.07
18.312,0.43,0.63,-0.32,0.82
18.322,0.17,0.52,-0.11,0.55
18.332,-0.07,0.38,-0.06,0.40
18.342,-0.25,0.22,0.09,0.35
18.352,-0.36,0.10,0.17,0.41
18.362,-0.47,-0.02,0.26,0.53
18.371,-0.57,-0.19,0.36,0.70
18.382,-0.59,-0.33,0.50,0.84
18.391,-0.62,-0.47,0.64,1.00
18.402,-0.60,-0.56,0.79,1.14
18.411,-0.59,-0.61,0.92,1.25
18.421,-0.58,-0.68,1.11,1.42
18.431,-0.59,-0.69,1.24,1.54
18.441,-0.50,-0.61,1.15,1.39
18.451,-0.31,-0.43,0.73,0.90
18.461,-0.15,-0.30,0.35,0.49
18.471,0.05,-0.18,0.10,0.22
18.481,0.26,-0.08,-0.08,0.28
18.491,0.49,0.09,-0.15,0.52
18.501,0.65,0.28,-0.11,0.71
18.511,0.68,0.38,-0.04,0.78
18.521,0.62,0.36,0.06,0.72
18.531,0.50,0.28,0.13,0.59
18.541,0.39,0.22,0.11,0.46
18.551,0.30,0.12,0.05,0.33
18.561,0.24,0.07,0.03,0.25
18.570,0.22,0.05,0.02,0.23
18.581,0.17,0.10,0.08,0.21
18.590,0.07,0.18,0.09,0.22
18.600,0.00,0.17,0.08,0.19
18.610,-0.00,0.15,-0.01,0.15
18.620,-0.01,0.16,-0.06,0.17
18.630,0.04,0.19,-0.19,0.27
18.640,0.08,0.23,-0.37,0.44
18.650,0.13,0.26,-0.52,0.60
18.660,0.14,0.28,-0.56,0.64
18.670,0.04,0.26,-0.38,0.46
18.680,-0.06,0.27,-0.22,0.36
18.690,-0.13,0.23,-0.09,0.28
18.700,-0.14,0.20,-0.16,0.29
18.710,-0.19,0.10,-0.05,0.22
18.720,-0.21,0.00,-0.07,0.22
18.730,-0.18,-0.07,-0.11,0.23
18.740,-0.13,-0.13,-0.17,0.24
18.750,-0.05,-0.16,-0.21,0.27
18.760,-0.01,-0.22,-0.12,0.25
18.769,0.02,-0.28,-0.01,0.29
18.780,0.03,-0.28,0.10,0.30
18.789,0.09,-0.27,0.02,0.28
18.799,0.15,-0.27,-0.14,0.34
18.809,0.23,-0.26,-0.28,0.44
18.819,0.28,-0.27,-0.30,0.49
18.829,0.35,-0.21,-0.30,0.51
18.839,0.36,-0.22,-0.24,0.48
18.849,0.36,-0.22,-0.16,0.45
18.859,0.31,-0.21,0.05,0.38
18.869,0.22,-0.24,0.27,0.42
18.879,0.18,-0.24,0.34,0.45
18.889,0.15,-0.26,0.48,0.56
18.899,0.16,-0.27,0.48,0.57
18.909,0.18,-0.25,0.43,0.53
18.919,0.24,-0.23,0.40,0.52
18.929,0.30,-0.13,0.26,0.42
18.939,0.38,-0.04,0.16,0.41
18.948,0.46,0.05,0.05,0.46
18.959,0.47,0.12,0.01,0.49
18.968,0.43,0.13,-0.02,0.45
18.978,0.36,0.16,0.03,0.39
18.988,0.25,0.22,0.12,0.35
18.998,0.12,0.23,0.20,0.32
19.008,-0.08,0.18,0.32,0.37
19.018,-0.22,0.11,0.41,0.47
19.028,-0.33,0.10,0.43,0.55
19.038,-0.42,0.10,0.47,0.64
19.048,-0.52,0.09,0.52,0.74
19.058,-0.56,0.10,0.46,0.73
19.068,-0.58,0.14,0.31,0.68
19.078,-0.56,0.16,0.09,0.59
19.088,-0.48,0.22,-0.18,0.56
19.098,-0.39,0.28,-0.43,0.65
19.108,-0.29,0.32,-0.69,0.81
19.118,-0.21,0.39,-0.80,0.92
19.128,-0.18,0.45,-0.82,0.95
19.138,-0.17,0.45,-0.84,0.97
19.147,-0.19,0.45,-0.82,0.96
19.157,-0.22,0.40,-0.67,0.81
19.167,-0.29,0.32,-0.49,0.65
19.177,-0.41,0.22,-0.41,0.62
19.187,-0.46,0.13,-0.42,0.64
19.197,-0.45,0.01,-0.44,0.63
19.207,-0.37,-0.07,-0.51,0.64
19.217,-0.31,-0.14,-0.62,0.71
19.227,-0.25,-0.21,-0.77,0.83
19.237,-0.13,-0.23,-0.89,0.93
19.247,-0.09,-0.22,-0.95,0.98
19.257,-0.07,-0.22,-0.91,0.94
19.267,-0.06,-0.18,-0.80,0.83
19.277,-0.11,-0.14,-0.73,0.75
19.287,-0.18,-0.13,-0.59,0.63
19.297,-0.29,-0.13,-0.40,0.51
19.307,-0.38,-0.13,-0.26,0.48
19.317,-0.44,-0.07,-0.25,0.51
19.326,-0.46,-0.02,-0.25,0.53
19.337,-0.48,-0.02,-0.13,0.50
19.346,-0.53,-0.03,-0.04,0.53
19.356,-0.52,-0.06,-0.03,0.53
19.366,-0.49,-0.02,-0.01,0.49
19.377,-0.48,0.04,0.05,0.49
19.386,-0.47,0.06,0.02,0.47
19.396,-0.47,0.04,-0.08,0.48
19.406,-0.50,0.01,-0.14,0.52
19.416,-0.46,0.06,-0.15,0.49
19.426,-0.48,0.11,-0.12,0.51
19.436,-0.52,0.11,-0.07,0.54
19.446,-0.56,0.09,0.02,0.57
19.456,-0.57,0.11,0.11,0.59
19.466,-0.56,0.09,0.09,0.58
19.476,-0.58,0.04,0.04,0.58
19.486,-0.58,0.01,0.03,0.58
19.496,-0.59,-0.05,0.05,0.59
19.505,-0.59,-0.10,0.07,0.61
19.515,-0.57,-0.11,0.14,0.60
19.525,-0.57,-0.10,0.17,0.60
19.535,-0.59,-0.11,0.11,0.61
19.545,-0.61,-0.13,0.10,0.63
19.555,-0.63,-0.13,0.05,0.64
19.565,-0.61,-0.05,-0.06,0.61
19.575,-0.58,0.05,-0.16,0.60
19.585,-0.59,0.11,-0.28,0.66
19.595,-0.59,0.15,-0.39,0.72
19.605,-0.61,0.21,-0.43,0.77
19.615,-0.62,0.24,-0.36,0.76
19.625,-0.67,0.24,-0.24,0.75
19.635,-0.73,0.23,-0.23,0.80
19.645,-0.79,0.21,-0.22,0.84
19.655,-0.83,0.18,-0.28,0.90
19.665,-0.88,0.10,-0.32,0.94
19.675,-0.88,0.05,-0.38,0.96
19.684,-0.88,-0.02,-0.42,0.98
19.695,-0.87,-0.05,-0.40,0.96
19.704,-0.87,-0.05,-0.33,0.93
19.715,-0.88,-0.05,-0.32,0.94
19.724,-0.85,-0.11,-0.39,0.95
19.734,-0.82,-0.17,-0.42,0.94
19.744,-0.79,-0.24,-0.42,0.93
19.754,-0.73,-0.29,-0.37,0.87
19.764,-0.70,-0.31,-0.30,0.82
19.774,-0.65,-0.33,-0.18,0.75
19.784,-0.65,-0.31,-0.05,0.72
19.794,-0.62,-0.29,0.09,0.68
19.804,-0.59,-0.26,0.09,0.65
19.814,-0.54,-0.28,0.02,0.61
19.824,-0.51,-0.28,-0.04,0.58
19.834,-0.49,-0.28,-0.07,0.57
19.844,-0.42,-0.23,-0.11,0.50
19.854,-0.37,-0.18,-0.17,0.45
19.864,-0.33,-0.13,-0.21,0.41
19.874,-0.33,-0.05,-0.19,0.38
19.884,-0.34,0.01,-0.15,0.37
19.894,-0.31,0.05,-0.17,0.35
19.903,-0.31,0.09,-0.20,0.38
19.913,-0.28,0.14,-0.24,0.39
19.923,-0.25,0.17,-0.30,0.43
19.933,-0.23,0.18,-0.30,0.42
19.943,-0.19,0.18,-0.32,0.41
19.953,-0.21,0.19,-0.32,0.43
19.963,-0.27,0.14,-0.22,0.38
19.973,-0.28,0.08,-0.09,0.31
19.983,-0.32,0.02,-0.02,0.32
19.993,-0.38,-0.09,0.04,0.40
20.003,-0.40,-0.17,0.22,0.49
20.013,-0.43,-0.18,0.33,0.57
20.023,-0.47,-0.19,0.39,0.64
20.033,-0.47,-0.20,0.35,0.62
20.043,-0.50,-0.17,0.29,0.60
20.053,-0.47,-0.10,0.26,0.55
20.062,-0.45,-0.06,0.19,0.49
20.073,-0.43,-0.01,0.04,0.43
20.082,-0.41,0.07,-0.05,0.42
20.093,-0.38,0.19,-0.14,0.45
20.102,-0.37,0.29,-0.24,0.53
20.112,-0.40,0.32,-0.33,0.61
20.122,-0.44,0.30,-0.44,0.68
20.132,-0.50,0.27,-0.52,0.77
20.142,-0.52,0.23,-0.57,0.81
20.152,-0.55,0.19,-0.54,0.79
20.162,-0.54,0.18,-0.55,0.80
20.172,-0.57,0.11,-0.57,0.81
20.182,-0.56,0.05,-0.63,0.85
20.192,-0.51,0.01,-0.66,0.83
20.202,-0.47,-0.07,-0.61,0.78
20.212,-0.43,-0.16,-0.51,0.69
20.222,-0.38,-0.23,-0.42,0.62
20.232,-0.31,-0.25,-0.37,0.54
20.241,-0.22,-0.19,-0.41,0.50
20.252,-0.20,-0.24,-0.42,0.52
20.261,-0.14,-0.28,-0.32,0.45
20.272,-0.09,-0.27,-0.32,0.43
20.281,-0.09,-0.31,-0.27,0.43
20.291,-0.07,-0.27,-0.21,0.35
20.301,-0.08,-0.25,-0.12,0.29
20.311,-0.12,-0.27,-0.04,0.30
20.321,-0.11,-0.28,-0.07,0.31
20.331,-0.09,-0.24,-0.16,0.30
20.341,-0.06,-0.19,-0.24,0.31
20.351,-0.04,-0.13,-0.32,0.35
20.361,-0.01,-0.08,-0.44,0.45
20.371,0.02,-0.01,-0.46,0.46
20.381,-0.04,0.08,-0.37,0.37
20.391,-0.04,0.10,-0.37,0.38
20.401,-0.09,0.06,-0.29,0.31
20.411,-0.12,0.02,-0.21,0.25
20.421,-0.15,-0.04,-0.11,0.19
20.431,-0.17,-0.11,-0.07,0.21
20.440,-0.14,-0.16,-0.03,0.22
20.450,-0.10,-0.18,-0.04,0.21
20.460,-0.07,-0.21,0.02,0.22
20.470,-0.05,-0.24,0.11,0.27
20.480,-0.02,-0.26,0.15,0.30
20.490,-0.02,-0.26,0.20,0.33
20.500,-0.01,-0.26,0.24,0.35
20.510,-0.01,-0.28,0.24,0.37
20.520,0.02,-0.23,0.16,0.28
20.530,-0.02,-0.25,0.15,0.29
20.540,-0.05,-0.25,0.08,0.27
20.550,-0.12,-0.24,0.11,0.29
20.560,-0.18,-0.20,0.15,0.31
20.570,-0.20,-0.12,0.08,0.25
20.580,-0.27,-0.12,-0.01,0.29
20.590,-0.30,-0.16,-0.04,0.34
20.600,-0.30,-0.16,-0.14,0.37
20.610,-0.33,-0.16,-0.19,0.41
20.619,-0.32,-0.12,-0.30,0.45
20.630,-0.29,-0.12,-0.41,0.52
20.639,-0.27,-0.17,-0.42,0.52
20.649,-0.23,-0.23,-0.46,0.57
20.659,-0.22,-0.22,-0.45,0.55
20.669,-0.24,-0.27,-0.43,0.56
20.679,-0.25,-0.34,-0.39,0.57
20.689,-0.26,-0.40,-0.33,0.58
20.699,-0.30,-0.40,-0.33,0.60
20.709,-0.27,-0.38,-0.39,0.61
20.719,-0.27,-0.41,-0.46,0.67
20.729,-0.24,-0.42,-0.57,0.74
20.739,-0.22,-0.44,-0.56,0.74
20.749,-0.23,-0.43,-0.50,0.70
20.759,-0.24,-0.36,-0.43,0.61
20.769,-0.33,-0.36,-0.29,0.57
20.779,-0.34,-0.33,-0.20,0.51
20.789,-0.35,-0.30,-0.15,0.49
20.798,-0.38,-0.31,-0.28,0.57
20.809,-0.36,-0.28,-0.32,0.56
20.818,-0.36,-0.27,-0.23,0.51
20.829,-0.37,-0.28,-0.24,0.52
20.838,-0.33,-0.22,-0.23,0.45
20.848,-0.26,-0.15,-0.28,0.41
20.858,-0.23,-0.18,-0.27,0.40
20.868,-0.19,-0.25,-0.39,0.50
20.878,-0.14,-0.35,-0.37,0.53
20.888,-0.15,-0.46,-0.23,0.53
20.898,-0.18,-0.48,-0.05,0.51
20.908,-0.26,-0.49,0.22,0.60
20.918,-0.30,-0.54,0.43,0.75
20.928,-0.36,-0.57,0.67,0.96
20.938,-0.36,-0.52,0.69,0.94
20.948,-0.37,-0.55,0.58,0.88
20.958,-0.21,-0.54,0.30,0.66
20.968,-0.04,-0.50,-0.17,0.53
20.978,0.11,-0.47,-0.62,0.79
20.988,0.30,-0.39,-0.86,0.99
20.997,0.49,-0.27,-0.94,1.09
21.008,0.54,-0.17,-0.88,1.05
21.017,0.42,-0.14,-0.63,0.77
21.027,0.23,-0.14,-0.35,0.44
21.037,0.07,-0.17,-0.08,0.20
21.047,-0.05,-0.19,0.04,0.20
21.057,-0.11,-0.27,-0.03,0.29
21.067,-0.09,-0.36,-0.21,0.43
21.077,0.01,-0.43,-0.36,0.56
21.087,0.13,-0.44,-0.57,0.73
21.097,0.23,-0.39,-0.65,0.80
21.107,0.32,-0.38,-0.67,0.83
21.117,0.36,-0.42,-0.62,0.83
21.127,0.36,-0.45,-0.57,0.81
21.137,0.34,-0.40,-0.52,0.74
21.147,0.26,-0.43,-0.47,0.69
21.157,0.22,-0.45,-0.45,0.68
21.167,0.16,-0.50,-0.39,0.65
21.176,0.14,-0.50,-0.40,0.65
21.187,0.08,-0.48,-0.36,0.61
21.197,0.07,-0.49,-0.28,0.57
21.207,0.05,-0.47,-0.04,0.47
21.216,0.03,-0.50,-0.05,0.50
21.226,0.05,-0.50,-0.22,0.55
21.236,0.06,-0.53,-0.28,0.60
21.246,0.14,-0.51,-0.39,0.66
21.256,0.19,-0.52,-0.40,0.68
21.266,0.22,-0.54,-0.38,0.70
21.276,0.15,-0.56,-0.19,0.61
21.286,0.11,-0.58,-0.01,0.59
21.296,0.09,-0.61,0.12,0.63
21.306,0.07,-0.63,0.20,0.66
21.316,0.09,-0.63,0.13,0.65
21.326,0.13,-0.69,-0.09,0.71
21.336,0.24,-0.71,-0.34,0.82
21.346,0.34,-0.72,-0.44,0.90
21.356,0.44,-0.72,-0.46,0.96
21.366,0.58,-0.70,-0.45,1.02
21.375,0.56,-0.71,-0.22,0.93
21.385,0.47,-0.70,-0.06,0.85
21.395,0.37,-0.72,0.01,0.81
21.405,0.29,-0.68,0.13,0.75
21.415,0.21,-0.64,0.21,0.71
21.425,0.21,-0.65,0.13,0.69
21.435,0.18,-0.65,0.03,0.67
21.445,0.18,-0.58,-0.13,0.62
21.455,0.18,-0.48,-0.14,0.53
21.465,0.18,-0.41,-0.27,0.53
21.475,0.17,-0.38,-0.30,0.51
21.485,0.22,-0.38,-0.52,0.69
21.495,0.19,-0.43,-0.67,0.82
21.505,0.13,-0.44,-0.47,0.66
21.515,-0.01,-0.54,-0.31,0.62
21.525,-0.11,-0.61,-0.15,0.64
21.535,-0.23,-0.66,-0.06,0.70
21.545,-0.37,-0.71,0.06,0.80
21.555,-0.45,-0.79,0.10,0.91
21.565,-0.49,-0.88,0.11,1.02
21.574,-0.45,-1.01,-0.05,1.11
21.585,-0.32,-1.05,-0.49,1.20
21.594,-0.16,-1.04,-0.83,1.34
21.604,0.01,-1.01,-1.03,1.44
21.614,0.17,-0.96,-1.19,1.54
21.624,0.27,-0.95,-1.20,1.55
21.634,0.34,-0.97,-1.09,1.49
21.644,0.25,-1.09,-0.85,1.40
21.654,0.12,-1.30,-0.54,1.41
21.664,-0.06,-1.49,-0.13,1.50
21.674,-0.21,-1.60,0.16,1.62
21.684,-0.34,-1.64,0.29,1.70
21.694,-0.46,-1.72,0.43,1.83
21.704,-0.45,-1.69,0.45,1.81
21.714,-0.36,-1.56,0.19,1.61
21.724,-0.25,-1.50,0.03,1.52
21.734,-0.10,-1.48,-0.22,1.50
21.744,0.05,-1.45,-0.37,1.50
21.754,0.25,-1.36,-0.44,1.46
21.764,0.37,-1.26,-0.29,1.34
21.773,0.35,-1.14,-0.11,1.20
21.783,0.21,-1.11,0.03,1.13
21.793,0.06,-1.10,0.16,1.12
21.803,-0.04,-1.08,0.25,1.11
21.813,-0.07,-1.06,0.25,1.09
21.823,-0.08,-1.04,0.23,1.07
21.833,-0.11,-1.00,0.13,1.01
21.843,-0.10,-0.97,0.01,0.98
21.853,-0.04,-0.94,-0.06,0.94
21.863,-0.02,-0.90,-0.10,0.91
21.873,-0.00,-0.90,-0.11,0.91
21.883,-0.06,-0.98,0.03,0.98
21.893,-0.15,-1.10,0.32,1.15
21.903,-0.28,-1.17,0.61,1.35
21.913,-0.37,-1.14,0.70,1.39
21.923,-0.46,-1.13,0.83,1.48
21.933,-0.67,-1.14,1.03,1.68
21.943,-0.70,-1.13,0.85,1.57
21.952,-0.56,-0.95,0.42,1.18
21.963,-0.43,-0.97,0.03,1.06
21.972,-0.28,-0.96,-0.24,1.03
21.982,-0.12,-0.96,-0.53,1.10
21.992,0.01,-0.96,-0.70,1.18
22.002,0.15,-0.86,-0.80,1.19
22.012,0.19,-0.77,-0.59,0.99
22.022,0.15,-0.80,-0.41,0.91
22.032,0.11,-0.95,-0.36,1.02
22.042,0.10,-1.02,-0.48,1.13
22.052,0.13,-1.07,-0.62,1.24
22.062,0.14,-1.14,-0.66,1.33
22.072,0.18,-1.18,-0.65,1.36
22.082,0.21,-1.18,-0.71,1.39
22.092,0.30,-1.16,-0.77,1.43
22.102,0.42,-1.07,-0.82,1.41
22.112,0.37,-1.07,-0.77,1.37
22.122,0.38,-1.03,-0.74,1.32
22.131,0.37,-0.98,-0.77,1.30
22.142,0.37,-0.95,-0.85,1.33
22.151,0.38,-0.93,-0.86,1.32
22.162,0.32,-0.90,-0.69,1.18
22.171,0.23,-0.83,-0.51,1.00
22.181,0.12,-0.76,-0.37,0.86
22.191,0.01,-0.71,-0.26,0.76
22.201,-0.04,-0.69,-0.19,0.72
22.211,-0.06,-0.67,-0.20,0.70
22.221,-0.13,-0.68,-0.14,0.71
22.231,-0.14,-0.70,-0.17,0.74
22.241,-0.13,-0.69,-0.19,0.73
22.251,-0.12,-0.69,-0.17,0.72
22.261,-0.14,-0.69,-0.17,0.72
22.271,-0.10,-0.70,-0.27,0.76
22.281,-0.14,-0.76,-0.27,0.82
22.291,-0.12,-0.76,-0.27,0.82
22.301,-0.14,-0.76,-0.19,0.79
22.310,-0.21,-0.78,-0.04,0.81
22.321,-0.26,-0.80,-0.01,0.84
22.330,-0.29,-0.81,0.05,0.87
22.341,-0.28,-0.78,0.05,0.83
22.350,-0.26,-0.84,0.13,0.89
22.360,-0.26,-0.93,0.12,0.97
22.370,-0.16,-0.97,-0.03,0.98
22.380,-0.07,-0.94,-0.19,0.96
22.390,0.02,-0.89,-0.26,0.93
22.400,0.05,-0.94,-0.19,0.96
22.410,0.08,-0.93,-0.20,0.95
22.420,0.09,-0.81,-0.30,0.87
22.430,0.09,-0.78,-0.38,0.87
22.440,0.08,-0.85,-0.24,0.88
22.450,0.14,-0.85,-0.27,0.90
22.460,0.13,-0.75,-0.35,0.84
22.470,0.10,-0.72,-0.33,0.80
22.480,0.12,-0.71,-0.38,0.81
22.490,0.13,-0.77,-0.39,0.87
22.500,0.12,-0.72,-0.42,0.84
22.509,0.07,-0.65,-0.29,0.72
22.519,0.04,-0.62,-0.27,0.67
22.529,0.02,-0.68,-0.25,0.72
22.539,0.06,-0.70,-0.28,0.76
22.549,0.07,-0.65,-0.37,0.75
22.559,0.09,-0.63,-0.42,0.76
22.569,0.09,-0.64,-0.35,0.74
22.579,0.10,-0.69,-0.30,0.76
22.589,0.13,-0.63,-0.30,0.71
22.599,0.14,-0.54,-0.26,0.62
22.609,0.14,-0.54,-0.24,0.61
22.619,0.14,-0.61,-0.35,0.71
22.629,0.14,-0.66,-0.41,0.79
22.639,0.18,-0.64,-0.44,0.79
22.649,0.14,-0.59,-0.41,0.74
22.659,0.09,-0.64,-0.30,0.71
22.669,0.07,-0.71,-0.27,0.76
22.679,0.07,-0.74,-0.31,0.80
22.688,0.09,-0.68,-0.29,0.75
22.699,0.04,-0.69,-0.22,0.73
22.708,0.00,-0.84,-0.06,0.84
22.719,0.03,-0.85,-0.14,0.86
22.728,0.05,-0.74,-0.15,0.76
22.738,0.06,-0.74,-0.10,0.75
22.748,0.06,-0.86,-0.10,0.86
22.758,0.09,-0.87,-0.06,0.88
22.768,0.11,-0.90,-0.15,0.92
22.778,0.04,-0.99,-0.05,0.99
22.788,0.07,-0.97,-0.03,0.98
22.798,0.04,-0.90,0.16,0.91
22.808,0.00,-0.83,0.15,0.84
22.818,-0.01,-0.84,-0.02,0.85
22.828,0.03,-0.87,-0.15,0.88
22.838,0.14,-0.82,-0.19,0.85
22.848,0.25,-0.77,-0.29,0.86
22.858,0.26,-0.75,-0.29,0.85
22.867,0.29,-0.71,-0.28,0.82
22.878,0.28,-0.70,-0.30,0.82
22.887,0.29,-0.74,-0.26,0.84
22.898,0.18,-0.75,-0.13,0.78
22.907,0.12,-0.75,-0.05,0.76
22.917,0.10,-0.76,-0.09,0.77
22.927,0.09,-0.77,-0.17,0.79
22.937,0.12,-0.77,-0.28,0.83
22.947,0.12,-0.80,-0.21,0.83
22.957,0.17,-0.76,-0.26,0.82
22.967,0.17,-0.73,-0.33,0.82
22.977,0.14,-0.76,-0.27,0.81
22.987,0.13,-0.82,-0.24,0.86
22.997,0.13,-0.80,-0.24,0.85
23.007,0.12,-0.78,-0.25,0.83
23.017,0.06,-0.84,-0.19,0.86
23.027,0.04,-0.88,-0.23,0.91
23.037,0.02,-0.89,-0.22,0.92
23.047,-0.00,-0.87,-0.21,0.90
23.057,-0.02,-0.87,-0.16,0.88
23.067,-0.03,-0.88,-0.17,0.90
23.077,-0.01,-0.88,-0.25,0.91
23.086,-0.01,-0.90,-0.36,0.97
23.096,0.02,-0.91,-0.36,0.98
23.106,0.03,-0.91,-0.36,0.98
23.116,0.02,-0.93,-0.32,0.98
23.126,0.01,-0.95,-0.25,0.98
23.136,0.01,-0.93,-0.27,0.97
23.146,-0.00,-0.91,-0.24,0.94
23.156,0.00,-0.90,-0.26,0.94
23.166,-0.00,-0.98,-0.25,1.01
23.176,0.06,-0.99,-0.30,1.03
23.186,0.16,-0.92,-0.38,1.01
23.196,0.18,-0.85,-0.38,0.95
23.206,0.20,-1.02,-0.25,1.07
23.216,0.36,-0.98,-0.41,1.12
23.226,0.43,-0.96,-0.56,1.19
23.236,0.45,-1.05,-0.53,1.26
23.245,0.45,-1.01,-0.40,1.17
23.256,0.38,-1.03,-0.19,1.11
23.265,0.27,-1.01,-0.12,1.05
23.276,0.21,-0.94,-0.15,0.98
23.285,0.26,-0.80,-0.21,0.87
23.295,0.38,-0.72,-0.33,0.88
23.305,0.44,-0.76,-0.55,1.04
23.315,0.39,-0.78,-0.52,1.02
23.325,0.33,-0.77,-0.48,0.97
23.335,0.25,-0.60,-0.49,0.81
23.345,0.10,-0.50,-0.30,0.59
23.355,-0.03,-0.45,-0.08,0.46
23.365,-0.19,-0.36,0.16,0.43
23.375,-0.29,-0.27,0.29,0.49
23.385,-0.39,-0.24,0.25,0.53
23.395,-0.47,-0.16,0.13,0.51
23.405,-0.47,-0.09,-0.07,0.48
23.415,-0.39,-0.06,-0.16,0.43
23.425,-0.37,-0.06,-0.12,0.39
23.435,-0.38,-0.07,-0.04,0.39
23.444,-0.44,-0.08,-0.06,0.46
23.455,-0.50,-0.08,0.01,0.51
23.464,-0.54,-0.09,0.14,0.56
23.475,-0.54,-0.18,0.23,0.61
23.484,-0.51,-0.24,0.27,0.63
23.494,-0.43,-0.29,0.20,0.56
23.504,-0.35,-0.36,0.19,0.54
23.514,-0.25,-0.41,0.06,0.48
23.524,-0.12,-0.47,0.05,0.49
23.534,-0.05,-0.52,0.03,0.52
23.544,-0.03,-0.64,0.12,0.65
23.554,0.00,-0.62,0.09,0.63
23.564,0.07,-0.61,0.03,0.61
23.574,0.07,-0.60,0.04,0.60
23.584,0.06,-0.62,0.06,0.63
23.594,0.09,-0.61,0.05,0.62
23.604,0.09,-0.64,0.04,0.65
23.614,0.15,-0.66,0.08,0.68
23.623,0.18,-0.61,0.11,0.65
23.634,0.21,-0.61,0.12,0.65
23.643,0.24,-0.59,0.10,0.65
23.653,0.27,-0.60,0.04,0.66
23.663,0.33,-0.52,-0.09,0.62
23.673,0.40,-0.45,-0.17,0.62
23.683,0.44,-0.39,-0.16,0.61
23.693,0.48,-0.32,-0.19,0.61
23.703,0.52,-0.27,-0.14,0.60
23.713,0.55,-0.24,-0.06,0.60
23.723,0.50,-0.23,0.05,0.55
23.733,0.46,-0.26,0.08,0.53
23.743,0.44,-0.30,0.12,0.55
23.753,0.41,-0.32,0.15,0.54
23.763,0.39,-0.31,0.21,0.54
23.773,0.34,-0.36,0.44,0.66
23.783,0.29,-0.46,0.54,0.76
23.793,0.31,-0.46,0.47,0.73
23.803,0.35,-0.45,0.52,0.78
23.813,0.38,-0.47,0.41,0.73
23.822,0.56,-0.31,-0.13,0.65
23.832,0.72,-0.13,-0.50,0.89
23.842,0.82,0.02,-0.76,1.11
23.852,0.98,0.17,-1.07,1.45
23.862,0.95,0.20,-1.13,1.49
23.872,0.79,0.12,-0.85,1.16
23.882,0.60,0.12,-0.62,0.87
23.892,0.48,0.15,-0.73,0.89
23.902,0.35,0.20,-1.01,1.09
23.912,0.27,0.19,-0.98,1.03
23.922,0.24,0.11,-1.33,1.35
23.932,0.23,0.09,-1.72,1.74
23.942,0.13,-0.02,-1.53,1.53
23.952,0.03,-0.12,-1.17,1.17
23.962,-0.17,-0.28,-0.77,0.83
23.972,-0.43,-0.48,-0.38,0.75
23.982,-0.67,-0.61,-0.15,0.91
23.992,-0.80,-0.75,-0.04,1.10
24.002,-0.94,-0.93,0.08,1.32
24.012,-1.01,-1.09,0.26,1.51
24.021,-1.00,-1.15,0.35,1.56
24.031,-0.89,-1.14,0.31,1.48
24.041,-0.76,-1.10,0.27,1.36
24.051,-0.67,-1.06,0.23,1.27
24.061,-0.57,-1.00,0.17,1.16
24.071,-0.48,-0.95,0.03,1.07
24.081,-0.45,-0.94,0.01,1.04
24.091,-0.37,-0.94,0.04,1.01
24.101,-0.31,-0.96,0.09,1.02
24.111,-0.30,-0.96,0.11,1.01
24.121,-0.31,-0.95,0.04,1.00
24.131,-0.31,-0.94,-0.00,0.98
24.141,-0.27,-0.94,-0.04,0.98
24.151,-0.22,-0.94,-0.06,0.97
24.161,-0.17,-0.91,-0.12,0.93
24.171,-0.16,-0.90,-0.11,0.92
24.181,-0.11,-0.94,-0.13,0.95
24.191,-0.02,-0.93,-0.19,0.95
24.200,0.03,-0.92,-0.21,0.94
24.211,0.05,-0.90,-0.18,0.92
24.220,0.02,-0.88,-0.11,0.89
24.230,0.01,-0.89,-0.04,0.89
24.240,0.01,-0.86,0.01,0.86
24.250,0.02,-0.83,0.10,0.84
24.260,0.01,-0.79,0.11,0.79
24.270,0.04,-0.72,0.08,0.73
24.280,0.11,-0.69,0.03,0.69
24.290,0.23,-0.61,-0.07,0.65
24.300,0.35,-0.53,-0.11,0.64
24.310,0.48,-0.50,-0.18,0.71
24.320,0.61,-0.44,-0.17,0.78
24.330,0.68,-0.42,-0.15,0.81
24.340,0.76,-0.36,-0.15,0.85
24.350,0.79,-0.32,-0.14,0.86
24.360,0.79,-0.30,-0.12,0.86
24.370,0.79,-0.28,-0.11,0.85
24.379,0.80,-0.27,-0.14,0.85
24.390,0.77,-0.25,-0.15,0.82
24.399,0.73,-0.24,-0.12,0.78
24.409,0.68,-0.28,-0.10,0.74
24.419,0.65,-0.31,-0.12,0.72
24.429,0.58,-0.35,-0.14,0.69
24.439,0.53,-0.36,-0.17,0.66
24.449,0.48,-0.40,-0.12,0.63
24.459,0.43,-0.42,-0.09,0.61
24.469,0.36,-0.44,-0.10,0.58
24.479,0.34,-0.43,-0.14,0.56
24.489,0.29,-0.43,-0.16,0.54
24.499,0.23,-0.46,-0.15,0.53
24.509,0.17,-0.51,-0.25,0.59
24.519,0.14,-0.52,-0.29,0.61
24.529,0.14,-0.51,-0.36,0.64
24.539,0.10,-0.54,-0.39,0.67
24.549,0.02,-0.62,-0.34,0.70
24.559,-0.00,-0.67,-0.26,0.72
24.569,-0.03,-0.68,-0.27,0.73
24.578,-0.06,-0.69,-0.24,0.74
24.588,-0.12,-0.72,-0.21,0.76
24.598,-0.17,-0.79,-0.14,0.82
24.608,-0.18,-0.82,-0.11,0.84
24.618,-0.19,-0.79,-0.07,0.82
24.628,-0.20,-0.75,-0.08,0.78
24.638,-0.23,-0.77,-0.07,0.81
24.648,-0.22,-0.78,-0.10,0.81
24.658,-0.18,-0.78,-0.11,0.81
24.668,-0.18,-0.75,-0.14,0.78
24.678,-0.15,-0.73,-0.25,0.79
24.688,-0.17,-0.73,-0.20,0.78
24.698,-0.16,-0.70,-0.20,0.74
24.708,-0.17,-0.67,-0.18,0.72
24.718,-0.18,-0.62,-0.20,0.68
24.728,-0.18,-0.61,-0.27,0.69
24.738,-0.21,-0.65,-0.24,0.73
24.748,-0.19,-0.64,-0.18,0.69
24.758,-0.13,-0.60,-0.18,0.64
24.767,-0.11,-0.62,-0.19,0.65
24.777,-0.09,-0.64,-0.18,0.68
24.787,-0.07,-0.64,-0.09,0.65
24.797,-0.00,-0.62,-0.12,0.63
24.807,0.04,-0.57,-0.14,0.59
24.817,0.06,-0.59,-0.11,0.60
24.827,0.09,-0.61,-0.15,0.63
24.837,0.14,-0.61,-0.20,0.66
24.847,0.17,-0.56,-0.17,0.61
24.857,0.20,-0.52,-0.09,0.56
24.867,0.25,-0.51,-0.12,0.58
24.877,0.25,-0.54,-0.18,0.62
24.887,0.30,-0.54,-0.25,0.66
24.897,0.36,-0.52,-0.26,0.68
24.907,0.34,-0.53,-0.19,0.66
24.917,0.35,-0.58,-0.21,0.71
24.927,0.34,-0.61,-0.30,0.76
24.936,0.32,-0.59,-0.37,0.76
24.947,0.28,-0.64,-0.37,0.79
24.956,0.32,-0.68,-0.44,0.87
24.966,0.26,-0.80,-0.41,0.94
24.976,0.22,-0.82,-0.38,0.93
24.986,0.15,-0.83,-0.22,0.88
24.996,0.11,-0.88,-0.15,0.90
25.006,0.03,-0.96,-0.05,0.97
25.016,-0.03,-1.03,-0.03,1.03
25.026,-0.01,-1.05,-0.12,1.06
25.036,-0.02,-1.11,-0.16,1.12
25.046,0.02,-1.14,-0.37,1.20
25.056,0.12,-1.14,-0.46,1.23
25.066,0.16,-1.14,-0.54,1.28
25.076,0.20,-1.15,-0.60,1.31
25.086,0.18,-1.15,-0.57,1.29
25.096,0.15,-1.19,-0.48,1.29
25.106,0.10,-1.20,-0.39,1.27
25.116,0.01,-1.24,-0.30,1.27
25.126,-0.03,-1.28,-0.29,1.31
25.135,-0.07,-1.31,-0.35,1.36
25.146,-0.06,-1.33,-0.41,1.39
25.155,-0.01,-1.33,-0.40,1.39
25.165,-0.00,-1.33,-0.42,1.40
25.175,0.02,-1.33,-0.47,1.41
25.185,0.04,-1.32,-0.47,1.40
25.195,0.03,-1.34,-0.43,1.40
25.205,0.04,-1.28,-0.41,1.34
25.215,0.01,-1.23,-0.33,1.27
25.225,-0.02,-1.34,-0.28,1.37
25.235,0.01,-1.29,-0.32,1.33
25.245,0.00,-1.22,-0.22,1.24
25.255,0.04,-1.22,-0.24,1.24
25.265,0.06,-1.24,-0.21,1.26
25.275,0.09,-1.24,-0.18,1.25
25.285,0.09,-1.20,-0.23,1.22
25.295,0.12,-1.17,-0.25,1.20
25.305,0.15,-1.12,-0.27,1.16
25.314,0.20,-1.10,-0.19,1.13
25.325,0.21,-1.14,-0.19,1.18
25.334,0.18,-1.10,-0.20,1.14
25.345,0.16,-1.05,-0.16,1.08
25.354,0.17,-1.07,-0.24,1.10
25.364,0.15,-1.08,-0.21,1.11
25.374,0.16,-1.07,-0.20,1.10
25.384,0.14,-1.05,-0.27,1.10
25.394,0.10,-1.09,-0.37,1.15
25.404,0.10,-1.07,-0.39,1.14
25.414,0.11,-1.03,-0.43,1.12
25.424,0.10,-1.08,-0.43,1.16
25.434,0.07,-1.10,-0.35,1.15
25.444,0.02,-1.07,-0.35,1.12
25.454,-0.05,-1.10,-0.29,1.14
25.464,-0.05,-1.12,-0.28,1.16
25.474,-0.10,-1.13,-0.28,1.17
25.484,-0.11,-1.09,-0.34,1.15
25.494,-0.12,-1.10,-0.38,1.17
25.504,-0.11,-1.09,-0.44,1.18
25.513,-0.09,-1.06,-0.51,1.18
25.524,-0.08,-1.08,-0.54,1.21
25.533,-0.09,-1.08,-0.48,1.18
25.544,-0.12,-1.06,-0.46,1.16
25.553,-0.17,-1.12,-0.48,1.23
25.563,-0.20,-1.12,-0.46,1.23
25.573,-0.22,-1.12,-0.43,1.22
25.583,-0.22,-1.18,-0.47,1.29
25.593,-0.23,-1.21,-0.51,1.33
25.603,-0.22,-1.24,-0.44,1.33
25.613,-0.20,-1.28,-0.40,1.36
25.623,-0.19,-1.29,-0.41,1.37
25.633,-0.13,-1.31,-0.45,1.39
25.643,-0.09,-1.27,-0.49,1.37
25.653,-0.06,-1.24,-0.46,1.33
25.663,-0.05,-1.21,-0.46,1.29
25.673,-0.03,-1.16,-0.38,1.22
25.683,-0.03,-1.05,-0.33,1.10
25.692,-0.03,-0.99,-0.27,1.03
25.703,-0.06,-0.97,-0.17,0.99
25.712,-0.04,-0.91,-0.07,0.91
25.722,-0.04,-0.80,-0.10,0.81
25.732,-0.03,-0.74,-0.13,0.76
25.742,-0.03,-0.67,-0.06,0.67
25.752,-0.02,-0.57,0.01,0.57
25.762,-0.00,-0.48,-0.06,0.49
25.772,0.01,-0.43,-0.03,0.43
25.782,0.00,-0.36,0.03,0.36
25.792,-0.00,-0.32,0.09,0.33
25.802,-0.01,-0.31,0.13,0.33
25.812,-0.01,-0.28,0.10,0.29
25.822,-0.00,-0.25,0.02,0.25
25.832,0.03,-0.24,-0.13,0.27
25.842,0.07,-0.23,-0.22,0.33
25.852,0.12,-0.20,-0.23,0.33
25.862,0.16,-0.20,-0.27,0.37
25.872,0.19,-0.24,-0.24,0.38
25.881,0.20,-0.29,-0.23,0.42
25.892,0.19,-0.33,-0.20,0.43
25.901,0.24,-0.35,-0.23,0.48
25.911,0.28,-0.40,-0.21,0.54
25.921,0.27,-0.48,-0.23,0.60
25.931,0.24,-0.47,-0.15,0.55
25.941,0.29,-0.50,-0.19,0.61
25.951,0.27,-0.52,-0.24,0.63
25.961,0.30,-0.49,-0.20,0.61
25.971,0.29,-0.50,-0.16,0.60
25.981,0.27,-0.57,-0.22,0.67
25.991,0.27,-0.55,-0.19,0.64
26.001,0.27,-0.47,-0.14,0.56
26.011,0.23,-0.50,-0.11,0.56
26.021,0.21,-0.45,-0.06,0.50
26.031,0.15,-0.41,-0.02,0.43
26.041,0.14,-0.42,-0.07,0.45
26.051,0.11,-0.41,-0.14,0.44
26.061,0.07,-0.39,-0.11,0.41
26.070,0.08,-0.34,-0.15,0.38
26.081,0.03,-0.34,-0.16,0.38
26.090,0.02,-0.35,-0.18,0.40
26.101,0.00,-0.40,-0.21,0.45
26.110,-0.04,-0.46,-0.23,0.51
26.120,-0.07,-0.47,-0.21,0.52
26.130,-0.10,-0.48,-0.23,0.54
26.140,-0.10,-0.52,-0.26,0.59
26.150,-0.12,-0.59,-0.24,0.65
26.160,-0.13,-0.66,-0.26,0.72
26.170,-0.13,-0.74,-0.27,0.80
26.180,-0.12,-0.83,-0.25,0.87
26.190,-0.08,-0.90,-0.22,0.93
26.200,-0.06,-0.97,-0.20,0.99
26.210,-0.03,-1.02,-0.22,1.04
26.220,-0.03,-1.05,-0.25,1.08
26.230,0.00,-1.08,-0.28,1.11
26.240,0.05,-1.09,-0.31,1.14
26.249,0.07,-1.07,-0.31,1.12
26.260,0.07,-1.08,-0.25,1.11
26.269,0.07,-1.01,-0.19,1.03
26.280,0.07,-0.93,-0.12,0.94
26.289,0.06,-0.96,-0.14,0.97
26.299,0.05,-0.94,-0.15,0.95
26.309,0.05,-0.87,-0.18,0.89
26.319,0.05,-0.86,-0.14,0.87
26.329,0.05,-0.85,-0.11,0.85
26.339,0.04,-0.78,-0.05,0.78
26.349,0.06,-0.72,-0.06,0.72
26.359,0.03,-0.68,-0.06,0.68
26.369,0.03,-0.66,-0.09,0.66
26.379,0.05,-0.65,-0.17,0.67
26.389,0.06,-0.66,-0.25,0.71
26.399,0.04,-0.64,-0.30,0.70
26.409,0.06,-0.61,-0.37,0.71
26.419,0.08,-0.59,-0.44,0.74
26.429,0.02,-0.62,-0.42,0.75
26.439,0.01,-0.64,-0.44,0.78
26.448,0.01,-0.62,-0.49,0.79
26.459,0.02,-0.62,-0.53,0.82
26.468,-0.02,-0.67,-0.41,0.79
26.478,-0.04,-0.66,-0.42,0.78
26.488,-0.08,-0.67,-0.38,0.77
26.498,-0.11,-0.74,-0.32,0.81
26.508,-0.12,-0.72,-0.31,0.80
26.518,-0.17,-0.79,-0.20,0.83
26.528,-0.16,-0.85,-0.09,0.87
26.538,-0.17,-0.85,-0.09,0.87
26.548,-0.20,-0.84,0.08,0.87
26.558,-0.15,-0.84,0.09,0.86
26.568,-0.14,-0.82,-0.03,0.83
26.578,-0.06,-0.82,-0.14,0.83
26.588,0.04,-0.77,-0.26,0.81
26.598,0.08,-0.75,-0.32,0.82
26.608,0.10,-0.77,-0.37,0.86
26.618,0.15,-0.75,-0.41,0.87
26.628,0.14,-0.74,-0.39,0.85
26.638,0.12,-0.78,-0.33,0.85
26.648,0.08,-0.80,-0.25,0.85
26.658,-0.00,-0.84,-0.11,0.85
26.667,-0.05,-0.86,-0.08,0.87
26.677,-0.07,-0.88,-0.07,0.89
26.687,-0.07,-0.90,-0.07,0.90
26.697,-0.05,-0.87,-0.10,0.87
26.707,-0.01,-0.87,-0.07,0.87
26.717,-0.01,-0.86,-0.12,0.87
26.727,0.03,-0.84,-0.11,0.85
26.737,0.10,-0.83,-0.22,0.86
26.747,0.11,-0.77,-0.24,0.82
26.757,0.17,-0.72,-0.29,0.80
26.767,0.19,-0.68,-0.33,0.78
26.777,0.21,-0.68,-0.42,0.83
26.787,0.19,-0.73,-0.51,0.91
26.797,0.18,-0.69,-0.51,0.88
26.806,0.17,-0.73,-0.48,0.89
26.817,0.06,-0.79,-0.34,0.86
26.827,0.06,-0.79,-0.32,0.85
26.836,0.02,-0.82,-0.26,0.86
26.846,-0.01,-0.88,-0.27,0.92
26.856,-0.03,-0.88,-0.25,0.92
26.866,-0.01,-0.88,-0.25,0.92
26.876,0.01,-0.87,-0.26,0.91
26.886,0.04,-0.86,-0.28,0.91
26.896,0.07,-0.76,-0.28,0.82
26.906,0.07,-0.73,-0.17,0.75
26.916,0.03,-0.71,-0.07,0.72
26.926,0.04,-0.62,0.01,0.62
26.936,0.02,-0.56,0.00,0.56
26.946,0.03,-0.49,0.04,0.50
26.956,0.03,-0.43,0.10,0.44
26.966,0.04,-0.37,0.13,0.39
26.976,0.10,-0.27,0.07,0.29
26.986,0.12,-0.18,0.06,0.22
26.996,0.11,-0.14,0.08,0.20
27.005,0.13,-0.08,0.01,0.16
27.016,0.16,-0.03,-0.00,0.16
27.025,0.14,0.00,0.06,0.15
27.035,0.08,0.02,0.09,0.12
27.045,0.07,0.06,0.03,0.10
27.055,0.06,0.07,-0.03,0.10
27.065,0.05,0.07,-0.04,0.09
27.075,0.05,0.06,-0.08,0.11
27.085,0.03,0.01,-0.11,0.12
27.095,0.01,0.02,-0.12,0.12
27.105,0.03,-0.03,-0.16,0.17
27.115,0.05,-0.09,-0.13,0.17
27.125,0.07,-0.10,-0.11,0.16
27.135,0.08,-0.11,-0.10,0.17
27.145,0.07,-0.18,-0.07,0.20
27.155,0.08,-0.21,-0.05,0.23
27.165,0.07,-0.22,-0.10,0.25
27.175,0.07,-0.23,-0.17,0.29
27.184,0.08,-0.24,-0.15,0.29
27.195,0.09,-0.22,-0.13,0.27
27.204,0.09,-0.21,-0.21,0.31
27.215,0.08,-0.21,-0.16,0.28
27.224,0.09,-0.19,-0.10,0.23
27.234,0.06,-0.19,-0.09,0.22
27.244,0.06,-0.22,-0.05,0.23
27.254,0.03,-0.18,-0.00,0.18
27.264,0.02,-0.20,-0.03,0.20
27.274,0.03,-0.24,-0.10,0.26
27.284,0.01,-0.20,-0.02,0.20
27.294,-0.01,-0.19,0.04,0.20
27.304,-0.04,-0.23,0.05,0.24
27.314,-0.04,-0.22,0.08,0.24
27.324,-0.01,-0.20,0.11,0.23
27.334,-0.03,-0.26,0.06,0.26
27.344,-0.03,-0.29,0.07,0.30
27.354,-0.01,-0.23,0.08,0.25
27.364,0.03,-0.22,0.04,0.23
27.374,0.04,-0.24,0.03,0.24
27.383,0.09,-0.21,0.06,0.23
27.394,0.11,-0.19,0.01,0.22
27.403,0.17,-0.19,-0.05,0.26
27.413,0.19,-0.20,-0.05,0.28
27.423,0.18,-0.17,-0.06,0.25
27.433,0.21,-0.16,-0.06,0.27
27.443,0.21,-0.18,-0.06,0.28
27.453,0.18,-0.15,-0.02,0.24
27.463,0.22,-0.14,-0.08,0.27
27.473,0.21,-0.17,-0.08,0.28
27.483,0.20,-0.19,-0.04,0.28
27.493,0.18,-0.18,-0.09,0.27
27.503,0.17,-0.17,-0.05,0.24
27.513,0.15,-0.17,-0.01,0.22
27.523,0.14,-0.13,-0.05,0.20
27.533,0.14,-0.13,-0.08,0.21
27.543,0.12,-0.14,-0.07,0.20
27.553,0.13,-0.11,-0.14,0.22
27.563,0.10,-0.11,-0.10,0.18
27.573,0.08,-0.13,-0.12,0.19
27.582,0.05,-0.10,-0.09,0.14
27.593,0.05,-0.07,-0.10,0.13
27.602,0.01,-0.09,-0.09,0.13
27.613,-0.04,-0.11,-0.07,0.14
27.622,-0.09,-0.15,0.00,0.17
27.632,-0.10,-0.17,0.01,0.20
27.642,-0.13,-0.16,0.09,0.22
27.652,-0.14,-0.17,0.04,0.23
27.662,-0.15,-0.20,0.03,0.25
27.672,-0.15,-0.21,0.09,0.27
27.682,-0.17,-0.20,0.07,0.28
27.692,-0.16,-0.22,0.00,0.28
27.702,-0.17,-0.24,0.02,0.29
27.712,-0.14,-0.23,-0.05,0.27
27.722,-0.11,-0.20,-0.17,0.29
27.732,-0.09,-0.18,-0.26,0.33
27.742,-0.08,-0.24,-0.24,0.35
27.752,-0.08,-0.30,-0.27,0.41
27.762,-0.08,-0.30,-0.28,0.42
27.772,-0.12,-0.31,-0.19,0.38
27.781,-0.11,-0.31,-0.11,0.35
27.791,-0.10,-0.36,-0.07,0.38
27.801,-0.08,-0.44,-0.10,0.45
27.811,-0.08,-0.48,-0.10,0.49
27.821,0.00,-0.41,-0.13,0.43
27.831,0.05,-0.47,-0.16,0.50
27.841,0.10,-0.49,-0.12,0.51
27.851,0.14,-0.42,-0.10,0.45
27.861,0.15,-0.40,-0.07,0.43
27.871,0.15,-0.45,-0.12,0.49
27.881,0.13,-0.45,-0.05,0.47
27.891,0.12,-0.45,0.02,0.46
27.901,0.13,-0.42,-0.05,0.44
27.911,0.13,-0.35,-0.10,0.39
27.921,0.12,-0.26,-0.10,0.31
27.931,0.16,-0.27,-0.18,0.36
27.941,0.18,-0.27,-0.27,0.42
27.951,0.18,-0.20,-0.35,0.45
27.960,0.24,-0.17,-0.37,0.47
27.971,0.24,-0.21,-0.32,0.45
27.980,0.20,-0.21,-0.28,0.40
27.990,0.20,-0.20,-0.30,0.41
28.000,0.17,-0.30,-0.27,0.44
28.010,0.15,-0.36,-0.16,0.42
28.020,0.12,-0.32,-0.07,0.35
28.030,0.08,-0.36,0.00,0.37
28.040,0.06,-0.37,0.04,0.38
28.050,0.08,-0.34,0.05,0.36
28.060,0.13,-0.37,0.02,0.39
28.070,0.16,-0.44,-0.04,0.47
28.080,0.19,-0.32,-0.16,0.41
28.090,0.22,-0.27,-0.24,0.42
28.100,0.25,-0.27,-0.22,0.43
28.110,0.25,-0.24,-0.16,0.38
28.120,0.21,-0.23,-0.16,0.35
28.130,0.16,-0.25,-0.15,0.34
28.140,0.12,-0.24,-0.09,0.28
28.150,0.07,-0.22,-0.04,0.23
28.159,0.00,-0.24,-0.04,0.24
28.169,-0.08,-0.29,0.02,0.30
28.179,-0.15,-0.28,0.02,0.31
28.189,-0.16,-0.27,-0.01,0.32
28.199,-0.18,-0.31,-0.05,0.36
28.209,-0.21,-0.33,-0.04,0.40
28.219,-0.24,-0.35,0.05,0.43
28.229,-0.26,-0.38,0.01,0.46
28.239,-0.30,-0.41,0.06,0.51
28.249,-0.30,-0.42,0.06,0.53
28.259,-0.30,-0.45,0.02,0.54
28.269,-0.27,-0.44,-0.09,0.52
28.279,-0.24,-0.44,-0.13,0.52
28.289,-0.19,-0.45,-0.23,0.54
28.299,-0.11,-0.45,-0.35,0.58
28.309,-0.06,-0.45,-0.45,0.64
28.318,-0.02,-0.45,-0.50,0.67
28.329,-0.00,-0.46,-0.45,0.64
28.338,-0.00,-0.51,-0.43,0.67
28.349,-0.03,-0.57,-0.39,0.69
28.358,-0.09,-0.64,-0.35,0.73
28.368,-0.11,-0.69,-0.29,0.75
28.378,-0.14,-0.71,-0.23,0.76
28.388,-0.19,-0.75,-0.18,0.79
28.398,-0.16,-0.76,-0.20,0.80
28.408,-0.13,-0.75,-0.19,0.78
28.418,-0.09,-0.69,-0.17,0.72
28.428,-0.06,-0.60,-0.12,0.61
28.438,-0.06,-0.60,-0.17,0.62
28.448,-0.04,-0.57,-0.18,0.60
28.458,-0.04,-0.50,-0.13,0.51
28.468,0.00,-0.46,-0.17,0.49
28.478,0.01,-0.48,-0.20,0.52
28.488,-0.02,-0.41,-0.17,0.44
28.498,-0.05,-0.34,-0.11,0.36
28.508,-0.06,-0.31,-0.14,0.34
28.517,-0.09,-0.27,-0.15,0.33
28.528,-0.14,-0.20,-0.11,0.26
28.537,-0.15,-0.19,-0.05,0.25
28.547,-0.21,-0.17,0.11,0.29
28.557,-0.22,-0.12,0.19,0.31
28.567,-0.23,-0.10,0.23,0.34
28.577,-0.27,-0.06,0.22,0.35
28.587,-0.24,0.02,0.23,0.33
28.597,-0.22,0.12,0.24,0.34
28.607,-0.17,0.18,0.22,0.34
28.617,-0.13,0.28,0.17,0.35
28.627,-0.11,0.39,0.14,0.43
28.637,-0.06,0.51,0.07,0.51
28.647,-0.01,0.57,0.06,0.57
28.657,-0.02,0.59,0.08,0.60
28.667,0.01,0.62,0.04,0.62
28.677,0.02,0.57,0.00,0.58
28.687,0.04,0.48,0.01,0.48
28.697,0.04,0.44,-0.03,0.44
28.707,0.04,0.40,-0.00,0.41
28.716,0.05,0.36,-0.00,0.37
28.726,0.01,0.33,0.02,0.33
28.736,0.01,0.29,0.02,0.29
28.746,0.04,0.24,-0.02,0.24
28.756,0.04,0.19,-0.04,0.20
28.766,0.03,0.13,-0.02,0.13
28.776,0.03,0.14,-0.06,0.16
28.786,0.02,0.11,-0.11,0.16
28.796,-0.02,0.13,-0.08,0.16
28.806,-0.03,0.17,-0.09,0.20
28.816,-0.02,0.20,-0.04,0.21
28.826,-0.04,0.17,-0.02,0.17
28.836,-0.06,0.19,0.04,0.21
28.846,-0.12,0.24,0.07,0.28
28.856,-0.14,0.28,0.03,0.31
28.866,-0.21,0.26,-0.01,0.33
28.876,-0.21,0.29,-0.03,0.36
28.886,-0.23,0.32,-0.01,0.39
28.895,-0.25,0.31,-0.02,0.40
28.905,-0.28,0.35,-0.02,0.45
28.915,-0.31,0.36,0.05,0.48
28.925,-0.33,0.34,0.04,0.48
28.935,-0.39,0.32,0.03,0.50
28.945,-0.41,0.35,0.01,0.54
28.955,-0.40,0.36,0.00,0.54
28.965,-0.39,0.31,-0.04,0.50
28.975,-0.42,0.27,-0.05,0.50
28.985,-0.40,0.24,-0.07,0.47
28.995,-0.40,0.21,-0.12,0.46
29.005,-0.36,0.22,-0.16,0.45
29.015,-0.34,0.22,-0.16,0.43
29.025,-0.37,0.19,-0.19,0.46
29.035,-0.38,0.15,-0.20,0.45
29.045,-0.41,0.12,-0.17,0.46
29.055,-0.41,0.10,-0.23,0.48
29.065,-0.35,0.05,-0.21,0.41
29.075,-0.36,-0.01,-0.14,0.39
29.085,-0.37,-0.01,-0.06,0.38
29.094,-0.39,-0.01,-0.07,0.39
29.104,-0.39,-0.03,-0.12,0.41
29.114,-0.37,-0.03,-0.03,0.38
29.124,-0.31,0.02,-0.01,0.31
29.134,-0.34,-0.01,-0.04,0.34
29.144,-0.33,0.04,0.01,0.33
29.154,-0.35,0.10,0.01,0.36
29.164,-0.35,0.15,-0.02,0.38
29.174,-0.34,0.13,-0.05,0.37
29.184,-0.34,0.13,0.01,0.37
29.194,-0.34,0.21,-0.01,0.40
29.204,-0.39,0.25,-0.03,0.46
29.214,-0.43,0.26,0.00,0.50
29.224,-0.42,0.31,0.01,0.52
29.234,-0.45,0.37,-0.01,0.58
29.244,-0.43,0.39,-0.06,0.58
29.254,-0.43,0.39,-0.05,0.58
29.264,-0.41,0.41,-0.06,0.58
29.273,-0.42,0.41,-0.01,0.59
29.284,-0.44,0.36,0.06,0.57
29.293,-0.38,0.42,-0.00,0.57
29.303,-0.39,0.41,-0.03,0.57
29.313,-0.36,0.35,0.01,0.50
29.323,-0.36,0.36,0.07,0.51
29.333,-0.35,0.43,0.14,0.57
29.343,-0.37,0.40,0.17,0.57
29.353,-0.35,0.43,0.07,0.56
29.363,-0.34,0.45,0.12,0.57
29.373,-0.30,0.44,0.18,0.56
29.383,-0.27,0.49,0.01,0.56
29.393,-0.28,0.51,0.00,0.58
29.403,-0.25,0.54,0.03,0.60
29.413,-0.23,0.55,-0.08,0.60
29.423,-0.25,0.58,-0.09,0.64
29.433,-0.23,0.59,-0.07,0.64
29.443,-0.23,0.59,-0.02,0.64
29.452,-0.28,0.59,-0.05,0.66
29.463,-0.27,0.62,-0.01,0.67
29.472,-0.27,0.67,-0.01,0.72
29.483,-0.31,0.64,0.02,0.71
29.492,-0.37,0.60,0.11,0.72
29.502,-0.40,0.63,0.16,0.76
29.512,-0.41,0.64,0.13,0.77
29.522,-0.45,0.64,0.13,0.79
29.532,-0.47,0.65,0.18,0.82
29.542,-0.50,0.67,0.15,0.85
29.552,-0.50,0.71,0.16,0.88
29.562,-0.50,0.76,0.13,0.92
29.572,-0.50,0.78,0.12,0.94
29.582,-0.49,0.82,0.13,0.97
29.592,-0.48,0.84,0.07,0.97
29.602,-0.45,0.87,0.01,0.98
29.612,-0.45,0.87,0.06,0.98
29.622,-0.44,0.87,0.10,0.98
29.632,-0.43,0.82,0.03,0.93
29.642,-0.45,0.78,0.01,0.90
29.652,-0.43,0.76,0.03,0.87
29.662,-0.44,0.68,0.12,0.82
29.671,-0.43,0.66,0.07,0.78
29.681,-0.43,0.67,0.05,0.80
29.691,-0.43,0.65,0.14,0.79
29.702,-0.42,0.57,0.07,0.71
29.711,-0.39,0.51,-0.04,0.64
29.721,-0.39,0.47,-0.03,0.61
29.731,-0.33,0.52,-0.05,0.62
29.741,-0.36,0.43,0.01,0.56
29.751,-0.34,0.41,-0.05,0.53
29.761,-0.38,0.41,-0.05,0.56
29.771,-0.40,0.40,-0.09,0.57
29.781,-0.40,0.35,-0.06,0.53
29.791,-0.45,0.32,-0.06,0.56
29.801,-0.49,0.29,-0.09,0.58
29.811,-0.53,0.30,-0.12,0.61
29.821,-0.54,0.30,-0.16,0.64
29.830,-0.54,0.32,-0.16,0.65
29.841,-0.52,0.31,-0.14,0.62
29.851,-0.50,0.28,-0.14,0.60
29.861,-0.55,0.33,-0.15,0.66
29.870,-0.55,0.34,-0.10,0.66
29.880,-0.56,0.32,-0.12,0.66
29.890,-0.59,0.30,-0.14,0.68
29.900,-0.62,0.32,-0.14,0.72
29.910,-0.63,0.29,-0.11,0.70
29.920,-0.64,0.29,-0.14,0.71
29.930,-0.64,0.33,-0.10,0.72
29.940,-0.63,0.32,-0.08,0.71
29.950,-0.67,0.27,-0.03,0.72
29.960,-0.68,0.26,-0.04,0.73
29.970,-0.70,0.24,-0.06,0.74
29.980,-0.68,0.22,-0.04,0.71
29.990,-0.68,0.23,-0.04,0.72
30.000,-0.69,0.22,-0.07,0.73
30.010,-0.67,0.20,-0.13,0.72
30.019,-0.66,0.23,-0.13,0.71
30.029,-0.69,0.20,-0.20,0.74
30.040,-0.73,0.15,-0.17,0.76
30.049,-0.71,0.17,-0.17,0.75
30.059,-0.76,0.13,-0.23,0.80
30.069,-0.73,0.15,-0.20,0.78
30.079,-0.78,0.15,-0.15,0.81
30.089,-0.82,0.13,-0.25,0.86
30.099,-0.83,0.15,-0.31,0.90
30.109,-0.80,0.19,-0.30,0.87
30.119,-0.80,0.23,-0.33,0.89
30.129,-0.82,0.20,-0.36,0.92
30.139,-0.80,0.23,-0.38,0.92
30.149,-0.81,0.22,-0.36,0.91
30.159,-0.82,0.22,-0.32,0.91
30.169,-0.83,0.21,-0.25,0.90
30.179,-0.86,0.18,-0.30,0.93
30.189,-0.85,0.17,-0.36,0.94
30.199,-0.86,0.15,-0.32,0.93
30.208,-0.84,0.15,-0.31,0.91
30.219,-0.88,0.11,-0.26,0.92
30.228,-0.87,0.12,-0.23,0.91
30.239,-0.83,0.13,-0.24,0.88
30.248,-0.85,0.10,-0.21,0.88
30.258,-0.88,0.11,-0.25,0.92
30.268,-0.88,0.12,-0.21,0.92
30.278,-0.89,0.12,-0.10,0.90
30.288,-0.85,0.19,-0.10,0.87
30.298,-0.88,0.16,-0.11,0.90
30.308,-0.83,0.13,0.02,0.84
30.318,-0.75,0.17,0.02,0.77
30.328,-0.73,0.13,-0.06,0.75
30.338,-0.71,0.12,-0.11,0.73
30.348,-0.70,0.09,-0.04,0.71
30.358,-0.70,0.10,-0.03,0.70
30.368,-0.69,0.11,-0.18,0.72
30.378,-0.61,0.16,-0.21,0.66
30.387,-0.51,0.23,-0.31,0.64
30.398,-0.45,0.26,-0.36,0.64
30.407,-0.47,0.18,-0.38,0.63
30.418,-0.48,0.15,-0.40,0.64
30.427,-0.52,0.12,-0.48,0.72
30.438,-0.53,0.14,-0.50,0.74
30.447,-0.58,0.12,-0.52,0.79
30.457,-0.66,0.10,-0.44,0.80
30.467,-0.71,0.11,-0.43,0.84
30.477,-0.83,0.12,-0.41,0.94
30.487,-0.91,0.11,-0.27,0.95
30.497,-0.98,0.07,-0.20,1.00
30.507,-0.95,0.06,-0.23,0.98
30.517,-0.95,-0.00,-0.34,1.01
30.527,-0.92,-0.02,-0.43,1.01
30.537,-0.85,-0.05,-0.39,0.93
30.547,-0.83,-0.08,-0.42,0.94
30.557,-0.79,-0.10,-0.51,0.94
30.567,-0.77,-0.13,-0.44,0.90
30.577,-0.77,-0.13,-0.42,0.88
30.586,-0.78,-0.20,-0.47,0.93
30.597,-0.79,-0.27,-0.51,0.98
30.606,-0.78,-0.24,-0.51,0.96
30.617,-0.80,-0.19,-0.55,0.99
30.626,-0.81,-0.26,-0.54,1.01
30.636,-0.82,-0.30,-0.50,1.01
30.646,-0.79,-0.30,-0.37,0.92
30.656,-0.85,-0.29,-0.26,0.93
30.666,-0.86,-0.26,-0.16,0.91
30.676,-0.91,-0.23,-0.04,0.94
30.686,-0.90,-0.14,-0.10,0.91
30.696,-0.92,-0.13,-0.19,0.94
30.706,-0.87,-0.06,-0.18,0.89
30.716,-0.82,-0.01,-0.16,0.84
30.726,-0.81,0.05,-0.20,0.84
30.736,-0.73,0.14,-0.25,0.78
30.746,-0.72,0.19,-0.21,0.78
30.756,-0.72,0.24,-0.19,0.79
30.765,-0.75,0.22,-0.12,0.79
30.776,-0.78,0.23,-0.09,0.82
30.785,-0.77,0.24,-0.17,0.82
30.796,-0.79,0.23,-0.21,0.85
30.805,-0.74,0.26,-0.25,0.82
30.815,-0.74,0.27,-0.24,0.83
30.825,-0.78,0.26,-0.23,0.85
30.835,-0.80,0.24,-0.29,0.89
30.845,-0.81,0.25,-0.24,0.88
30.855,-0.76,0.33,-0.26,0.87
30.865,-0.82,0.26,-0.25,0.90
30.875,-0.91,0.15,-0.22,0.94
30.885,-0.84,0.23,-0.33,0.93
30.895,-0.87,0.21,-0.35,0.96
30.905,-0.91,0.17,-0.24,0.95
30.915,-0.90,0.15,-0.08,0.91
30.925,-0.91,0.05,-0.08,0.91
30.935,-0.79,0.06,-0.17,0.81
30.945,-0.79,0.10,-0.08,0.80
30.955,-0.73,0.10,-0.29,0.79
30.965,-0.72,-0.04,-0.29,0.77
30.975,-0.63,-0.05,-0.31,0.71
30.984,-0.62,0.01,-0.29,0.68
30.994,-0.60,0.08,-0.27,0.66
31.004,-0.61,0.08,-0.34,0.70
31.014,-0.56,0.08,-0.51,0.76
31.024,-0.56,0.02,-0.47,0.73
31.034,-0.47,0.05,-0.49,0.68
31.044,-0.52,0.10,-0.54,0.76
31.054,-0.61,0.10,-0.52,0.80
31.064,-0.57,0.18,-0.50,0.78
31.074,-0.63,0.20,-0.41,0.78
31.084,-0.70,0.16,-0.40,0.82
31.094,-0.79,0.15,-0.22,0.84
31.104,-0.85,0.19,-0.12,0.88
31.114,-0.88,0.18,-0.21,0.92
31.124,-0.88,0.24,-0.22,0.94
31.134,-0.86,0.29,-0.31,0.96
31.144,-0.89,0.28,-0.45,1.03
31.154,-0.86,0.31,-0.58,1.08
31.163,-0.87,0.37,-0.60,1.12
31.173,-0.89,0.39,-0.54,1.11
31.183,-0.88,0.44,-0.49,1.10
31.193,-0.94,0.43,-0.44,1.13
31.203,-1.08,0.34,-0.35,1.18
31.213,-1.07,0.30,-0.27,1.15
31.223,-1.03,0.26,-0.13,1.07
31.233,-0.91,0.22,-0.27,0.97
31.243,-0.91,0.10,-0.24,0.95
31.253,-0.85,0.01,-0.23,0.88
31.263,-0.82,0.02,-0.38,0.90
31.273,-0.76,-0.03,-0.46,0.89
31.283,-0.66,-0.04,-0.54,0.86
31.293,-0.65,-0.13,-0.43,0.79
31.303,-0.63,-0.19,-0.38,0.76
31.313,-0.59,-0.19,-0.37,0.72
31.323,-0.59,-0.21,-0.39,0.74
31.333,-0.65,-0.18,-0.37,0.77
31.343,-0.70,-0.19,-0.30,0.78
31.353,-0.73,-0.14,-0.31,0.81
31.362,-0.74,-0.04,-0.30,0.80
31.373,-0.79,0.04,-0.24,0.82
31.382,-0.83,0.09,-0.08,0.84
31.392,-0.89,0.14,-0.01,0.90
31.402,-0.92,0.17,0.03,0.94
31.412,-0.97,0.15,0.02,0.98
31.422,-0.99,0.16,0.05,1.00
31.432,-0.95,0.20,0.08,0.98
31.442,-0.97,0.25,0.06,1.00
31.452,-0.94,0.32,0.01,0.99
31.462,-0.94,0.38,-0.11,1.02
31.472,-0.96,0.43,-0.19,1.07
31.482,-0.95,0.47,-0.26,1.09
31.492,-0.98,0.45,-0.34,1.13
31.502,-0.99,0.41,-0.39,1.14
31.512,-0.99,0.35,-0.32,1.10
31.521,-1.00,0.29,-0.33,1.09
31.532,-1.01,0.24,-0.34,1.10
31.541,-1.01,0.19,-0.40,1.10
31.551,-0.89,0.17,-0.39,0.99
31.561,-0.94,0.13,-0.24,0.98
31.571,-0.95,0.10,-0.26,0.99
31.581,-1.00,0.05,-0.22,1.03
31.591,-0.98,0.02,-0.20,0.99
31.601,-0.95,-0.02,-0.12,0.96
31.611,-0.97,-0.03,-0.08,0.98
31.621,-0.93,-0.01,-0.10,0.93
31.631,-0.86,-0.01,0.04,0.86
31.641,-0.85,0.04,0.02,0.85
31.651,-0.87,0.05,-0.13,0.88
31.661,-0.83,0.08,-0.24,0.87
31.671,-0.80,0.11,-0.27,0.85
31.681,-0.72,0.15,-0.40,0.84
31.691,-0.65,0.19,-0.56,0.88
31.701,-0.58,0.23,-0.60,0.87
31.711,-0.53,0.24,-0.62,0.85
31.720,-0.46,0.22,-0.57,0.77
31.731,-0.43,0.18,-0.59,0.75
31.740,-0.37,0.16,-0.54,0.67
31.751,-0.33,0.17,-0.45,0.59
31.760,-0.37,0.14,-0.36,0.53
31.770,-0.40,0.08,-0.32,0.52
31.780,-0.40,0.05,-0.32,0.52
31.790,-0.35,0.06,-0.33,0.49
31.800,-0.30,0.14,-0.31,0.45
31.810,-0.27,0.19,-0.29,0.44
31.820,-0.25,0.22,-0.28,0.44
31.830,-0.22,0.27,-0.24,0.43
31.840,-0.23,0.38,-0.14,0.46
31.850,-0.22,0.48,-0.02,0.53
31.860,-0.26,0.56,0.10,0.62
31.870,-0.31,0.62,0.15,0.71
31.880,-0.35,0.71,0.13,0.80
31.890,-0.38,0.78,0.09,0.87
31.900,-0.40,0.83,-0.03,0.92
31.910,-0.40,0.90,-0.09,0.99
31.919,-0.46,0.98,-0.08,1.09
31.930,-0.55,0.94,-0.01,1.08
31.939,-0.61,0.86,0.05,1.05
31.949,-0.72,0.78,0.12,1.07
31.959,-0.81,0.70,0.20,1.09
31.969,-0.90,0.67,0.28,1.15
31.979,-1.01,0.63,0.24,1.21
31.989,-1.05,0.67,0.11,1.25
31.999,-1.09,0.68,-0.01,1.28
32.009,-1.15,0.72,-0.12,1.36
32.019,-1.20,0.79,-0.19,1.45
32.029,-1.28,0.85,-0.25,1.56
32.039,-1.32,0.87,-0.32,1.61
32.049,-1.38,0.88,-0.29,1.66
32.059,-1.52,0.86,-0.23,1.76
32.069,-1.50,0.78,-0.11,1.70
32.079,-1.60,0.74,0.04,1.76
32.089,-1.67,0.76,0.17,1.84
32.098,-1.75,0.76,0.23,1.92
32.109,-1.79,0.78,0.22,1.96
32.118,-1.57,0.88,0.07,1.80
32.128,-1.43,0.93,-0.05,1.70
32.138,-1.30,0.95,-0.10,1.61
32.148,-1.22,1.02,-0.23,1.61
32.158,-1.02,1.09,-0.34,1.53
32.168,-1.02,1.15,-0.46,1.60
32.178,-0.99,1.22,-0.43,1.63
32.188,-1.00,1.29,-0.42,1.68
32.198,-1.04,1.29,-0.37,1.70
32.208,-1.06,1.32,-0.31,1.72
32.218,-1.03,1.32,-0.15,1.68
32.228,-1.02,1.36,-0.05,1.70
32.238,-0.98,1.41,0.03,1.72
32.248,-0.95,1.44,0.11,1.73
32.258,-0.92,1.48,0.12,1.75
32.268,-0.87,1.48,0.12,1.72
32.278,-0.84,1.44,0.15,1.67
32.288,-0.81,1.41,0.20,1.64
32.297,-0.83,1.37,0.25,1.62
32.307,-0.81,1.33,0.33,1.60
32.317,-0.81,1.30,0.42,1.58
32.327,-0.84,1.23,0.50,1.57
32.337,-0.86,1.24,0.56,1.61
32.347,-0.90,1.22,0.65,1.65
32.357,-0.93,1.23,0.66,1.68
32.367,-0.91,1.25,0.65,1.68
32.377,-0.92,1.28,0.55,1.67
32.387,-0.91,1.39,0.43,1.71
32.397,-0.87,1.47,0.38,1.75
32.407,-0.90,1.52,0.29,1.79
32.417,-0.88,1.55,0.29,1.81
32.427,-0.97,1.49,0.48,1.84
32.437,-1.03,1.46,0.50,1.86
32.447,-1.10,1.44,0.40,1.86
32.456,-1.12,1.41,0.20,1.81
32.467,-1.06,1.42,-0.01,1.77
32.476,-0.98,1.43,-0.13,1.74
32.487,-0.97,1.40,-0.21,1.71
32.496,-0.88,1.41,-0.30,1.69
32.506,-0.82,1.43,-0.23,1.66
32.516,-0.80,1.35,-0.14,1.58
32.526,-0.79,1.27,-0.03,1.50
32.536,-0.87,1.17,0.17,1.47
32.546,-0.90,1.14,0.26,1.47
32.556,-0.89,1.14,0.35,1.49
32.566,-0.95,1.10,0.46,1.52
32.576,-0.89,1.15,0.39,1.51
32.586,-0.90,1.20,0.41,1.55
32.596,-0.91,1.23,0.29,1.55
32.606,-0.88,1.31,0.11,1.58
32.616,-0.87,1.30,-0.06,1.56
32.626,-0.85,1.30,-0.28,1.58
32.636,-0.76,1.39,-0.43,1.64
32.646,-0.68,1.45,-0.47,1.67
32.656,-0.59,1.54,-0.51,1.73
32.666,-0.55,1.56,-0.39,1.70
32.675,-0.59,1.53,-0.23,1.65
32.685,-0.59,1.45,-0.08,1.57
32.695,-0.65,1.37,0.08,1.52
32.705,-0.64,1.30,0.17,1.46
32.715,-0.67,1.23,0.25,1.42
32.725,-0.64,1.19,0.19,1.36
32.735,-0.55,1.15,0.12,1.28
32.745,-0.49,1.14,0.13,1.25
32.755,-0.42,1.15,0.13,1.23
32.765,-0.39,1.19,0.09,1.25
32.775,-0.40,1.19,0.09,1.26
32.785,-0.37,1.23,-0.03,1.29
32.795,-0.33,1.33,-0.28,1.40
32.805,-0.34,1.38,-0.35,1.46
32.815,-0.33,1.45,-0.37,1.53
32.825,-0.32,1.59,-0.51,1.70
32.835,-0.40,1.69,-0.52,1.81
32.845,-0.53,1.70,-0.35,1.82
32.854,-0.69,1.65,-0.06,1.79
32.865,-0.89,1.52,0.23,1.78
32.874,-1.10,1.37,0.46,1.81
32.884,-1.25,1.24,0.65,1.87
32.894,-1.38,1.14,0.81,1.97
32.904,-1.46,1.01,0.90,1.99
32.914,-1.51,0.95,0.91,2.00
32.924,-1.54,0.95,0.81,1.98
32.934,-1.49,1.02,0.60,1.90
32.944,-1.41,1.12,0.37,1.84
32.954,-1.41,1.20,0.19,1.86
32.964,-1.36,1.23,0.07,1.84
32.974,-1.37,1.26,0.00,1.87
32.984,-1.38,1.30,-0.04,1.90
32.994,-1.41,1.30,-0.01,1.92
33.004,-1.45,1.23,0.11,1.91
33.014,-1.46,1.15,0.27,1.88
33.024,-1.48,1.07,0.42,1.87
33.033,-1.47,0.98,0.56,1.85
33.044,-1.43,0.92,0.60,1.80
33.053,-1.41,0.85,0.66,1.77
33.064,-1.33,0.85,0.73,1.74
33.073,-1.22,0.86,0.70,1.65
33.083,-1.12,0.86,0.61,1.54
33.093,-1.05,0.86,0.61,1.49
33.103,-0.92,0.90,0.55,1.40
33.113,-0.83,0.92,0.48,1.33
33.123,-0.73,0.98,0.37,1.27
33.133,-0.63,1.04,0.29,1.25
33.143,-0.55,1.10,0.27,1.26
33.153,-0.49,1.19,0.28,1.32
33.163,-0.45,1.27,0.25,1.37
33.173,-0.37,1.36,0.25,1.43
33.183,-0.33,1.48,0.32,1.55
33.193,-0.29,1.57,0.37,1.64
33.203,-0.28,1.64,0.41,1.71
33.213,-0.29,1.67,0.47,1.76
33.223,-0.26,1.70,0.50,1.79
33.232,-0.28,1.67,0.52,1.77
33.242,-0.29,1.67,0.45,1.75
33.252,-0.26,1.67,0.39,1.73
33.262,-0.26,1.66,0.38,1.72
33.272,-0.21,1.66,0.37,1.72
33.282,-0.25,1.64,0.41,1.71
33.292,-0.30,1.60,0.54,1.71
33.302,-0.36,1.57,0.68,1.75
33.312,-0.42,1.56,0.89,1.84
33.322,-0.45,1.57,0.96,1.90
33.332,-0.52,1.59,1.05,1.98
33.342,-0.52,1.59,0.90,1.89
33.352,-0.44,1.59,0.34,1.68
33.362,-0.29,1.56,-0.32,1.62
33.372,-0.06,1.59,-0.84,1.80
33.382,0.13,1.66,-0.93,1.91
33.392,0.21,1.58,-0.78,1.78
33.402,0.19,1.43,-0.64,1.58
33.412,0.02,1.28,-0.28,1.31
33.422,-0.19,1.15,0.21,1.18
33.431,-0.37,1.05,0.53,1.23
33.441,-0.49,0.91,0.56,1.17
33.451,-0.57,0.77,0.44,1.06
33.461,-0.48,0.71,0.32,0.91
33.471,-0.33,0.68,0.10,0.76
33.481,-0.14,0.76,-0.07,0.77
33.491,0.15,0.91,-0.13,0.93
33.501,0.48,0.99,-0.18,1.11
33.511,0.75,1.03,-0.19,1.29
33.521,0.97,1.01,-0.09,1.40
33.531,1.07,1.00,0.06,1.47
33.541,0.95,0.97,0.15,1.37
33.551,0.94,0.94,0.25,1.35
33.561,0.82,0.94,0.31,1.29
33.571,0.80,1.00,0.35,1.33
33.581,0.82,1.02,0.45,1.39
33.591,0.80,1.04,0.58,1.43
33.601,0.81,1.08,0.61,1.48
33.610,0.83,1.16,0.59,1.54
33.620,0.79,1.24,0.57,1.57
33.630,0.72,1.33,0.61,1.63
33.640,0.63,1.46,0.58,1.69
33.650,0.55,1.57,0.48,1.73
33.660,0.37,1.68,0.34,1.75
33.670,0.48,1.70,0.24,1.78
33.680,0.39,1.69,0.26,1.76
33.690,0.22,1.67,0.28,1.70
33.700,0.10,1.62,0.35,1.66
33.710,-0.05,1.58,0.38,1.63
33.720,-0.19,1.56,0.36,1.61
33.730,-0.30,1.46,0.37,1.53
33.740,-0.38,1.37,0.38,1.47
33.750,-0.45,1.31,0.39,1.44
33.760,-0.56,1.28,0.46,1.47
33.770,-0.65,1.27,0.52,1.51
33.780,-0.79,1.23,0.57,1.57
33.790,-0.96,1.21,0.66,1.68
33.800,-1.12,1.17,0.77,1.79
33.809,-1.28,1.12,0.83,1.89
33.819,-1.45,1.08,0.87,2.01
33.829,-1.62,1.06,0.87,2.12
33.840,-1.73,1.06,0.82,2.19
33.849,-1.76,1.10,0.78,2.22
33.859,-1.77,1.15,0.76,2.24
33.869,-1.83,1.17,0.71,2.28
33.879,-1.79,1.13,0.77,2.26
33.889,-1.74,1.11,0.90,2.25
33.899,-1.71,1.03,1.01,2.24
33.909,-1.75,0.91,1.18,2.30
33.919,-1.68,0.83,1.36,2.32
33.929,-1.53,0.87,1.25,2.16
33.939,-1.30,1.01,0.80,1.83
33.949,-1.13,1.14,0.09,1.61
33.959,-0.95,1.25,-0.74,1.74
33.969,-0.64,1.34,-1.40,2.04
33.979,-0.29,1.38,-1.72,2.22
33.989,0.01,1.31,-1.52,2.01
33.998,0.19,1.25,-0.97,1.59
34.008,0.26,1.14,-0.38,1.23
34.018,0.20,0.99,-0.06,1.01
34.028,0.13,0.77,0.00,0.78
34.038,0.06,0.61,-0.12,0.62
34.048,0.11,0.36,-0.33,0.50
34.058,0.51,0.11,-0.68,0.86
34.068,0.68,-0.02,-0.82,1.07
34.078,0.94,-0.06,-0.89,1.30
34.088,1.22,-0.13,-0.81,1.47
34.098,1.37,-0.15,-0.52,1.47
34.108,1.43,-0.14,-0.11,1.44
34.118,1.43,-0.07,0.12,1.44
34.128,1.34,-0.05,0.24,1.37
34.138,1.19,-0.07,0.35,1.24
34.148,1.13,-0.06,0.39,1.19
34.158,1.07,0.01,0.46,1.16
34.168,1.06,0.15,0.55,1.20
34.178,1.02,0.31,0.66,1.25
34.187,0.95,0.45,0.74,1.29
34.197,0.91,0.58,0.73,1.30
34.207,0.82,0.70,0.76,1.32
34.217,0.71,0.79,0.79,1.32
34.227,0.64,0.87,0.87,1.39
34.237,0.56,1.01,0.98,1.51
34.247,0.43,1.11,1.06,1.60
34.257,0.37,1.20,1.13,1.69
34.267,0.27,1.26,1.17,1.74
34.277,0.14,1.30,1.13,1.73
34.287,0.06,1.30,0.98,1.63
34.297,-0.09,1.27,0.85,1.53
34.307,-0.17,1.22,0.71,1.43
34.317,-0.24,1.23,0.61,1.39
34.327,-0.33,1.25,0.47,1.38
34.337,-0.35,1.24,0.36,1.34
34.347,-0.41,1.24,0.33,1.35
34.357,-0.46,1.22,0.35,1.35
34.367,-0.50,1.16,0.39,1.32
34.377,-0.56,1.07,0.46,1.29
34.387,-0.65,0.95,0.52,1.27
34.396,-0.71,0.89,0.49,1.24
34.406,-0.76,0.81,0.43,1.19
34.416,-0.84,0.74,0.40,1.19
34.426,-0.86,0.66,0.34,1.14
34.436,-0.85,0.61,0.27,1.09
34.446,-0.83,0.60,0.22,1.05
34.456,-0.83,0.60,0.19,1.04
34.466,-0.81,0.58,0.15,1.01
34.476,-0.75,0.59,0.08,0.96
34.486,-0.71,0.61,0.03,0.93
34.496,-0.65,0.62,-0.00,0.90
34.506,-0.60,0.63,-0.03,0.88
34.516,-0.54,0.67,0.01,0.86
34.526,-0.48,0.72,0.02,0.86
34.536,-0.41,0.79,-0.02,0.89
34.545,-0.35,0.79,-0.04,0.87
34.556,-0.26,0.81,-0.03,0.85
34.565,-0.20,0.82,-0.06,0.84
34.575,-0.13,0.82,-0.08,0.83
34.585,-0.03,0.84,-0.08,0.84
34.595,0.05,0.86,-0.05,0.86
34.605,0.09,0.81,0.05,0.82
34.615,0.11,0.79,0.13,0.81
34.625,0.17,0.79,0.26,0.85
34.635,0.18,0.78,0.38,0.89
34.645,0.18,0.77,0.51,0.94
34.655,0.17,0.73,0.58,0.95
34.665,0.18,0.69,0.56,0.91
34.675,0.23,0.69,0.47,0.87
34.685,0.30,0.69,0.34,0.82
34.695,0.37,0.66,0.22,0.79
34.705,0.46,0.69,0.18,0.85
34.715,0.51,0.73,0.20,0.91
34.725,0.52,0.80,0.26,0.99
34.735,0.49,0.88,0.35,1.07
34.744,0.48,0.91,0.41,1.11
34.755,0.44,0.94,0.51,1.15
34.764,0.41,0.95,0.48,1.14
34.775,0.41,0.98,0.32,1.11
34.784,0.51,1.07,0.07,1.19
34.794,0.58,1.15,-0.13,1.29
34.804,0.64,1.20,-0.25,1.38
34.814,0.68,1.20,-0.23,1.40
34.824,0.62,1.09,-0.03,1.26
34.834,0.56,1.02,0.14,1.17
34.844,0.46,0.98,0.36,1.14
34.854,0.34,0.86,0.55,1.07
34.864,0.21,0.72,0.61,0.97
34.874,0.11,0.61,0.65,0.90
34.884,0.01,0.50,0.65,0.82
34.894,-0.06,0.46,0.62,0.77
34.904,-0.10,0.45,0.48,0.67
34.914,-0.07,0.48,0.35,0.60
34.924,-0.02,0.52,0.26,0.58
34.934,-0.02,0.57,0.20,0.61
34.943,0.01,0.62,0.17,0.64
34.954,0.01,0.65,0.19,0.67
34.963,-0.06,0.69,0.17,0.72
34.973,-0.10,0.73,0.19,0.76
34.983,-0.18,0.72,0.21,0.77
34.993,-0.29,0.71,0.29,0.82
35.003,-0.40,0.72,0.40,0.92
35.013,-0.51,0.70,0.44,0.98
35.023,-0.59,0.66,0.46,1.00
35.033,-0.64,0.60,0.47,1.00
35.043,-0.68,0.57,0.41,0.98
35.053,-0.62,0.57,0.22,0.87
35.063,-0.57,0.60,0.04,0.83
35.073,-0.47,0.67,-0.18,0.84
35.083,-0.39,0.74,-0.37,0.91
35.093,-0.37,0.78,-0.31,0.92
35.103,-0.37,0.77,-0.13,0.87
35.113,-0.43,0.75,0.01,0.87
35.122,-0.48,0.70,0.04,0.85
35.132,-0.56,0.65,0.01,0.86
35.142,-0.59,0.61,-0.08,0.86
35.152,-0.59,0.58,-0.21,0.85
35.162,-0.53,0.59,-0.38,0.88
35.173,-0.45,0.61,-0.51,0.91
35.182,-0.42,0.65,-0.43,0.89
35.192,-0.42,0.65,-0.22,0.80
35.202,-0.44,0.58,-0.03,0.73
35.212,-0.44,0.49,0.07,0.66
35.222,-0.45,0.42,0.03,0.61
35.232,-0.39,0.36,-0.01,0.53
35.242,-0.35,0.37,-0.09,0.52
35.252,-0.28,0.34,-0.27,0.52
35.262,-0.19,0.37,-0.32,0.52
35.272,-0.05,0.46,-0.23,0.51
35.282,-0.05,0.48,-0.17,0.51
35.292,-0.12,0.44,0.07,0.46
35.301,-0.19,0.42,0.21,0.50
35.312,-0.18,0.41,0.15,0.47
35.321,-0.28,0.35,0.15,0.47
35.331,-0.30,0.34,0.26,0.52
35.341,-0.30,0.35,0.20,0.50
35.351,-0.27,0.31,0.04,0.41
35.361,-0.21,0.37,-0.05,0.43
35.371,-0.17,0.45,-0.04,0.48
35.381,-0.16,0.39,0.07,0.43
35.391,-0.18,0.32,0.14,0.40
35.401,-0.21,0.34,0.15,0.43
35.411,-0.22,0.38,0.19,0.48
35.421,-0.26,0.33,0.24,0.49
35.431,-0.26,0.26,0.23,0.44
35.441,-0.27,0.21,0.28,0.44
35.451,-0.22,0.22,0.24,0.39
35.461,-0.19,0.21,0.23,0.37
35.471,-0.16,0.19,0.29,0.38
35.481,-0.13,0.17,0.27,0.34
35.491,-0.09,0.18,0.17,0.26
35.500,-0.09,0.16,0.13,0.23
35.510,-0.04,0.17,0.14,0.22
35.520,-0.04,0.17,0.16,0.24
35.530,-0.04,0.20,0.22,0.30
35.540,-0.04,0.25,0.25,0.36
35.550,-0.01,0.29,0.20,0.35
35.560,-0.01,0.25,0.19,0.32
35.570,-0.00,0.26,0.18,0.32
35.580,0.01,0.30,0.15,0.34
35.590,0.03,0.30,0.04,0.31
35.600,0.02,0.26,-0.08,0.28
35.610,-0.01,0.25,-0.09,0.26
35.620,-0.09,0.21,-0.03,0.24
35.630,-0.19,0.17,0.08,0.27
35.640,-0.29,0.18,0.27,0.44
35.650,-0.38,0.19,0.37,0.56
35.660,-0.40,0.18,0.35,0.56
35.670,-0.45,0.17,0.31,0.58
35.679,-0.42,0.22,0.22,0.52
35.690,-0.39,0.23,0.14,0.47
35.699,-0.38,0.26,0.04,0.46
35.709,-0.36,0.29,0.14,0.48
35.719,-0.32,0.37,0.13,0.51
35.729,-0.35,0.35,0.19,0.53
35.739,-0.32,0.29,0.08,0.44
35.749,-0.26,0.30,-0.16,0.42
35.759,-0.23,0.27,-0.25,0.44
35.769,-0.20,0.29,-0.27,0.44
35.779,-0.18,0.30,-0.27,0.44
35.789,-0.18,0.26,-0.21,0.38
35.799,-0.16,0.29,0.00,0.33
35.809,-0.14,0.27,0.17,0.35
35.819,-0.09,0.18,0.21,0.30
35.829,0.00,0.16,0.17,0.23
35.839,0.08,0.18,-0.01,0.19
35.849,0.17,0.15,-0.28,0.36
35.859,0.25,0.14,-0.40,0.50
35.869,0.34,0.17,-0.38,0.54
35.878,0.35,0.22,-0.33,0.53
35.888,0.37,0.26,-0.18,0.49
35.898,0.33,0.27,0.00,0.43
35.908,0.28,0.26,0.10,0.39
35.918,0.24,0.24,0.05,0.34
35.928,0.20,0.21,0.10,0.30
35.938,0.18,0.22,0.14,0.32
35.948,0.17,0.25,0.27,0.40
35.958,0.16,0.25,0.35,0.46
35.968,0.11,0.22,0.54,0.59
35.978,0.07,0.19,0.62,0.65
35.988,0.03,0.19,0.69,0.72
35.998,0.03,0.20,0.71,0.74
36.008,0.07,0.25,0.40,0.48
36.018,0.12,0.32,0.02,0.34
36.028,0.19,0.41,-0.25,0.52
36.038,0.23,0.51,-0.26,0.62
36.048,0.27,0.53,-0.22,0.63
36.058,0.23,0.51,0.01,0.56
36.068,0.11,0.56,0.24,0.62
36.077,0.00,0.47,0.42,0.63
36.087,-0.09,0.35,0.44,0.57
36.097,-0.12,0.24,0.36,0.45
36.107,-0.20,0.14,0.27,0.37
36.117,-0.23,0.08,0.34,0.42
36.127,-0.27,0.04,0.41,0.49
36.137,-0.28,-0.00,0.46,0.54
36.147,-0.24,-0.01,0.56,0.61
36.157,-0.11,0.08,0.29,0.33
36.167,0.04,0.21,-0.14,0.25
36.177,0.17,0.24,-0.57,0.64
36.187,0.26,0.15,-0.77,0.82
36.197,0.29,0.14,-0.82,0.88
36.207,0.34,0.31,-0.59,0.75
36.217,0.23,0.40,-0.12,0.48
36.227,-0.01,0.25,0.33,0.42
36.237,-0.27,0.03,0.61,0.67
36.247,-0.44,-0.04,0.73,0.85
36.256,-0.52,-0.03,0.71,0.88
36.266,-0.59,-0.07,0.57,0.82
36.276,-0.54,-0.11,0.36,0.66
36.286,-0.38,-0.06,0.09,0.39
36.296,-0.25,0.10,0.03,0.27
36.306,-0.10,0.25,-0.05,0.28
36.316,-0.00,0.35,0.02,0.35
36.326,0.02,0.36,0.15,0.39
36.336,-0.00,0.36,0.25,0.44
36.346,-0.06,0.37,0.23,0.44
36.356,-0.11,0.34,0.29,0.46
36.366,-0.12,0.25,0.24,0.36
36.376,-0.10,0.20,0.23,0.32
36.386,-0.09,0.19,0.20,0.30
36.396,-0.03,0.20,0.19,0.28
36.406,0.03,0.15,0.13,0.20
36.416,0.14,0.10,0.11,0.20
36.426,0.21,0.07,0.17,0.28
36.436,0.29,0.08,0.17,0.35
36.446,0.37,0.07,0.20,0.43
36.455,0.42,0.04,0.19,0.46
36.466,0.50,0.00,0.14,0.52
36.475,0.53,-0.02,0.09,0.54
36.485,0.56,0.01,0.13,0.57
36.495,0.54,-0.00,0.19,0.57
36.505,0.56,0.01,0.27,0.62
36.515,0.57,0.03,0.28,0.63
36.525,0.56,0.09,0.26,0.62
36.535,0.60,0.22,0.17,0.66
36.545,0.60,0.31,0.20,0.70
36.555,0.54,0.37,0.28,0.71
36.565,0.49,0.44,0.29,0.72
36.575,0.50,0.54,0.09,0.74
36.585,0.54,0.66,-0.16,0.87
36.595,0.60,0.75,-0.30,1.01
36.605,0.65,0.77,-0.39,1.08
36.615,0.69,0.78,-0.43,1.13
36.625,0.58,0.82,-0.39,1.07
36.635,0.52,0.85,-0.24,1.02
36.644,0.37,0.69,-0.11,0.79
36.654,0.29,0.61,0.01,0.68
36.664,0.20,0.58,0.11,0.63
36.674,0.11,0.52,0.15,0.55
36.684,-0.01,0.44,0.16,0.47
36.694,-0.08,0.34,0.17,0.39
36.704,-0.15,0.25,0.21,0.36
36.714,-0.22,0.18,0.42,0.51
36.724,-0.29,0.14,0.67,0.74
36.734,-0.39,0.07,0.89,0.98
36.744,-0.45,0.01,0.92,1.02
36.754,-0.41,0.06,0.69,0.81
36.764,-0.37,0.17,0.44,0.60
36.774,-0.26,0.33,0.20,0.47
36.784,-0.10,0.55,-0.26,0.61
36.794,-0.03,0.61,-0.59,0.85
36.804,0.08,0.70,-0.67,0.97
36.814,0.15,0.82,-0.66,1.06
36.824,0.07,0.89,-0.56,1.05
36.833,-0.09,0.84,-0.36,0.92
36.843,-0.20,0.79,-0.23,0.85
36.853,-0.34,0.67,-0.10,0.76
36.863,-0.47,0.46,-0.01,0.66
36.873,-0.57,0.26,-0.02,0.63
36.883,-0.56,0.05,0.02,0.56
36.893,-0.53,-0.07,0.09,0.55
36.903,-0.50,-0.18,0.08,0.54
36.913,-0.45,-0.30,0.01,0.54
36.923,-0.39,-0.37,-0.03,0.53
36.933,-0.28,-0.36,-0.01,0.45
36.943,-0.15,-0.24,0.06,0.29
36.953,-0.06,-0.12,0.08,0.16
36.963,0.02,-0.02,0.11,0.11
36.973,0.04,-0.01,0.23,0.24
36.983,0.05,-0.00,0.42,0.42
36.993,0.03,-0.03,0.53,0.53
37.003,0.03,-0.05,0.60,0.60
37.012,0.05,-0.02,0.69,0.69
37.022,0.05,0.02,0.81,0.81
37.032,0.05,0.11,0.80,0.81
37.043,0.07,0.20,0.66,0.69
37.052,0.13,0.29,0.50,0.59
37.062,0.21,0.38,0.34,0.55
37.072,0.29,0.48,0.19,0.59
37.082,0.32,0.53,0.22,0.66
37.092,0.37,0.55,0.21,0.70
37.102,0.31,0.58,0.26,0.70
37.112,0.22,0.54,0.40,0.71
37.122,0.15,0.51,0.45,0.70
37.132,0.07,0.47,0.42,0.64
37.142,-0.01,0.43,0.37,0.57
37.152,-0.04,0.37,0.29,0.47
37.162,-0.03,0.38,0.12,0.40
37.172,0.01,0.40,0.12,0.42
37.182,0.04,0.40,0.03,0.40
37.192,0.03,0.37,0.01,0.37
37.202,0.04,0.41,-0.06,0.41
37.211,0.03,0.45,-0.15,0.48
37.222,-0.02,0.43,-0.22,0.49
37.231,-0.03,0.44,-0.28,0.52
37.241,-0.06,0.42,-0.35,0.55
37.251,-0.08,0.38,-0.31,0.49
37.261,-0.13,0.35,-0.19,0.42
37.271,-0.15,0.31,-0.13,0.37
37.281,-0.17,0.23,-0.08,0.30
37.291,-0.17,0.17,-0.04,0.25
37.301,-0.17,0.12,-0.07,0.22
37.311,-0.11,0.09,-0.29,0.32
37.321,-0.05,0.08,-0.47,0.48
37.331,0.04,0.06,-0.51,0.51
37.341,0.05,0.03,-0.41,0.42
37.351,0.05,-0.01,-0.28,0.29
37.361,0.02,-0.06,-0.14,0.16
37.371,-0.05,-0.14,0.02,0.15
37.381,-0.11,-0.23,0.07,0.27
37.391,-0.11,-0.32,0.11,0.36
37.400,-0.13,-0.26,0.11,0.31
37.410,-0.13,-0.20,0.05,0.24
37.420,-0.09,-0.19,-0.01,0.21
37.430,-0.06,-0.20,-0.09,0.22
37.440,0.01,-0.14,-0.09,0.17
37.450,0.10,-0.09,-0.09,0.16
37.460,0.16,-0.04,-0.08,0.19
37.470,0.18,-0.03,-0.20,0.28
37.480,0.18,-0.02,-0.21,0.28
37.490,0.19,0.04,-0.28,0.34
37.500,0.21,0.07,-0.32,0.39
37.510,0.16,0.07,-0.24,0.29
37.520,0.16,0.03,-0.13,0.21
37.530,0.12,-0.02,0.03,0.13
37.540,0.10,-0.06,0.16,0.20
37.550,0.11,-0.07,0.07,0.15
37.560,0.19,-0.09,-0.19,0.28
37.570,0.26,-0.16,-0.31,0.43
37.580,0.35,-0.17,-0.33,0.51
37.589,0.41,-0.19,-0.18,0.48
37.600,0.37,-0.19,0.05,0.42
37.609,0.25,-0.16,0.33,0.45
37.619,0.15,-0.21,0.51,0.57
37.629,0.02,-0.25,0.65,0.69
37.639,-0.01,-0.24,0.69,0.73
37.649,-0.07,-0.23,0.58,0.63
37.659,-0.09,-0.26,0.36,0.46
37.669,-0.06,-0.29,0.24,0.38
37.679,-0.04,-0.18,0.21,0.28
37.689,-0.02,-0.02,0.14,0.14
37.699,0.04,0.03,-0.06,0.08
37.709,0.09,0.01,-0.33,0.34
37.719,0.18,0.02,-0.46,0.50
37.729,0.14,0.01,-0.38,0.41
37.739,0.09,0.01,-0.32,0.33
37.749,0.04,0.08,-0.27,0.29
37.759,0.05,0.08,-0.39,0.40
37.768,0.03,0.02,-0.53,0.53
37.778,0.01,-0.06,-0.66,0.66
37.788,-0.03,-0.19,-0.59,0.62
37.798,-0.08,-0.33,-0.34,0.48
37.808,-0.14,-0.39,-0.08,0.42
37.818,-0.21,-0.47,0.19,0.54
37.828,-0.19,-0.51,0.33,0.64
37.838,-0.16,-0.56,0.30,0.66
37.848,-0.06,-0.56,0.13,0.58
37.858,0.02,-0.52,-0.08,0.52
37.868,0.12,-0.49,-0.22,0.55
37.878,0.29,-0.40,-0.24,0.55
37.888,0.45,-0.26,-0.21,0.56
37.898,0.55,-0.14,-0.20,0.60
37.908,0.56,-0.06,-0.16,0.59
37.918,0.48,-0.05,-0.02,0.49
37.928,0.42,-0.08,-0.04,0.43
37.938,0.33,-0.11,-0.09,0.36
37.947,0.23,-0.13,-0.05,0.27
37.958,0.16,-0.12,-0.05,0.21
37.967,0.08,-0.19,-0.07,0.22
37.977,0.06,-0.23,-0.00,0.24
37.987,0.03,-0.22,0.13,0.26
37.997,0.05,-0.22,-0.03,0.22
38.007,0.03,-0.25,-0.03,0.26
38.017,0.03,-0.25,-0.03,0.25
38.027,0.03,-0.25,-0.11,0.27
38.037,0.03,-0.27,-0.22,0.35
38.047,-0.01,-0.28,-0.20,0.35
38.057,-0.01,-0.30,-0.18,0.35
38.067,-0.04,-0.32,-0.14,0.35
38.077,-0.09,-0.34,-0.13,0.38
38.087,-0.14,-0.35,0.01,0.38
38.097,-0.14,-0.35,0.10,0.39
38.107,-0.12,-0.30,0.04,0.33
38.117,-0.09,-0.29,-0.09,0.32
38.127,-0.03,-0.29,-0.17,0.34
38.137,0.05,-0.32,-0.19,0.38
38.146,0.12,-0.29,-0.27,0.41
38.157,0.16,-0.27,-0.35,0.47
38.166,0.19,-0.24,-0.34,0.46
38.176,0.21,-0.27,-0.25,0.42
38.186,0.20,-0.26,-0.14,0.36
38.196,0.12,-0.28,-0.13,0.33
38.206,0.04,-0.40,0.00,0.41
38.216,0.01,-0.44,0.19,0.48
38.226,-0.08,-0.47,0.37,0.60
38.236,-0.13,-0.47,0.44,0.65
38.246,-0.14,-0.42,0.41,0.60
38.256,-0.08,-0.39,0.31,0.50
38.266,-0.00,-0.40,0.14,0.42
38.276,0.09,-0.37,0.02,0.38
38.286,0.17,-0.27,-0.05,0.32
38.296,0.25,-0.22,-0.16,0.37
38.306,0.31,-0.11,-0.22,0.39
38.316,0.30,-0.06,-0.18,0.35
38.325,0.24,-0.08,-0.22,0.33
38.336,0.12,-0.22,-0.16,0.30
38.345,0.05,-0.28,-0.03,0.29
38.356,0.02,-0.23,0.01,0.23
38.365,-0.03,-0.23,0.02,0.23
38.375,-0.01,-0.28,-0.02,0.28
38.385,0.03,-0.29,-0.10,0.31
38.395,0.08,-0.34,-0.09,0.36
38.405,0.12,-0.37,-0.10,0.41
38.415,0.14,-0.36,-0.11,0.40
38.425,0.16,-0.36,-0.02,0.40
38.435,0.22,-0.39,-0.09,0.46
38.445,0.24,-0.38,-0.11,0.46
38.455,0.22,-0.36,-0.20,0.47
38.465,0.21,-0.39,-0.21,0.49
38.475,0.16,-0.38,-0.05,0.41
38.485,0.09,-0.34,0.16,0.39
38.495,0.06,-0.26,0.28,0.39
38.505,-0.00,-0.26,0.21,0.34
38.515,-0.09,-0.30,0.24,0.39
38.525,-0.07,-0.32,0.28,0.43
38.534,-0.04,-0.32,0.02,0.32
38.544,0.02,-0.29,-0.33,0.44
38.554,0.07,-0.27,-0.46,0.54
38.564,0.08,-0.27,-0.35,0.45
38.574,0.01,-0.36,-0.23,0.42
38.584,-0.11,-0.37,-0.05,0.39
38.594,-0.26,-0.34,0.28,0.51
38.604,-0.39,-0.34,0.53,0.74
38.614,-0.43,-0.40,0.47,0.76
38.624,-0.44,-0.46,0.36,0.73
38.634,-0.36,-0.42,0.23,0.60
38.644,-0.23,-0.39,-0.02,0.45
38.654,-0.16,-0.39,-0.09,0.43
38.664,-0.03,-0.30,-0.10,0.31
38.674,0.05,-0.25,-0.06,0.27
38.684,0.13,-0.24,-0.19,0.34
38.694,0.15,-0.23,-0.29,0.40
38.703,0.13,-0.34,-0.24,0.44
38.714,0.13,-0.48,-0.22,0.54
38.723,0.11,-0.42,-0.03,0.44
38.734,0.08,-0.24,0.12,0.28
38.743,0.06,-0.20,0.13,0.25
38.754,0.10,-0.27,0.06,0.29
38.763,0.16,-0.34,-0.06,0.38
38.773,0.16,-0.41,-0.21,0.49
38.783,0.19,-0.39,-0.17,0.47
38.793,0.15,-0.39,-0.05,0.42
38.803,0.15,-0.34,0.04,0.37
38.813,0.06,-0.37,0.13,0.40
38.823,0.04,-0.36,0.13,0.38
38.833,0.01,-0.37,0.14,0.40
38.843,0.05,-0.37,0.12,0.39
38.853,0.11,-0.35,-0.04,0.37
38.863,0.15,-0.27,-0.07,0.31
38.873,0.26,-0.10,-0.12,0.30
38.883,0.30,-0.07,-0.08,0.32
38.893,0.33,-0.14,-0.11,0.38
38.902,0.24,-0.22,-0.01,0.32
38.913,0.25,-0.14,-0.07,0.30
38.922,0.19,-0.15,-0.21,0.32
38.932,0.19,-0.13,-0.26,0.35
38.942,0.19,-0.11,-0.39,0.45
38.952,0.13,-0.23,-0.30,0.40
38.962,0.08,-0.44,-0.01,0.45
38.972,0.08,-0.33,0.21,0.40
38.982,0.12,-0.16,-0.05,0.20
38.992,0.09,-0.25,-0.11,0.28
39.002,0.08,-0.40,-0.15,0.43
39.012,0.11,-0.51,-0.41,0.67
39.022,0.04,-0.59,-0.35,0.69
39.032,-0.08,-0.50,0.26,0.57
39.042,-0.18,-0.36,0.74,0.84
39.052,-0.18,-0.27,0.74,0.80
39.062,-0.13,-0.19,0.47,0.53
39.072,-0.02,-0.23,-0.20,0.31
39.081,0.10,-0.36,-0.81,0.89
39.092,0.27,-0.35,-0.96,1.05
39.101,0.40,-0.30,-0.85,0.98
39.112,0.51,-0.25,-0.64,0.86
39.121,0.46,-0.07,-0.21,0.51
39.131,0.29,-0.17,0.19,0.38
39.141,0.21,-0.39,0.15,0.47
39.151,0.10,-0.46,0.09,0.47
39.161,0.06,-0.42,-0.08,0.43
39.171,0.08,-0.43,-0.17,0.47
39.181,0.15,-0.50,-0.33,0.62
39.191,0.24,-0.49,-0.45,0.70
39.201,0.31,-0.37,-0.48,0.68
39.211,0.24,-0.38,-0.47,0.65
39.221,0.14,-0.45,-0.31,0.57
39.231,0.08,-0.45,-0.20,0.50
39.241,-0.00,-0.38,-0.17,0.42
39.251,-0.08,-0.25,-0.13,0.29
39.261,-0.13,-0.09,-0.01,0.16
39.271,-0.14,-0.05,-0.04,0.16
39.280,-0.11,-0.03,-0.19,0.22
39.291,-0.06,-0.03,-0.26,0.27
39.300,-0.05,-0.15,-0.20,0.25
39.311,-0.02,-0.26,-0.01,0.26
39.320,-0.02,-0.32,0.14,0.35
39.330,-0.13,-0.37,0.41,0.56
39.340,-0.25,-0.46,0.67,0.85
39.350,-0.23,-0.48,0.45,0.70
39.360,-0.08,-0.37,-0.12,0.39
39.370,0.12,-0.26,-0.88,0.93
39.380,0.32,-0.28,-1.47,1.53
39.390,0.50,-0.45,-1.47,1.61
39.400,0.56,-0.61,-1.07,1.36
39.410,0.48,-0.44,-0.27,0.70
39.420,0.11,-0.28,0.58,0.66
39.430,-0.05,-0.41,0.98,1.06
39.440,-0.18,-0.62,1.05,1.23
39.450,-0.27,-0.72,0.88,1.17
39.459,-0.29,-0.77,0.53,0.98
39.470,-0.21,-0.83,0.07,0.86
39.479,0.03,-0.79,-0.24,0.82
39.490,0.32,-0.60,-0.42,0.80
39.499,0.65,-0.36,-0.51,0.90
39.509,0.89,-0.10,-0.58,1.07
39.519,1.06,0.11,-0.61,1.23
39.529,1.14,0.20,-0.63,1.31
39.539,1.09,0.28,-0.67,1.31
39.549,1.01,0.35,-0.69,1.27
39.559,0.71,0.40,-0.60,1.01
39.569,0.54,0.33,-0.25,0.68
39.579,0.12,0.25,0.18,0.33
39.589,-0.28,0.06,0.54,0.61
39.599,-0.53,-0.10,0.83,0.99
39.609,-0.68,-0.13,0.71,0.99
39.619,-0.69,-0.26,0.21,0.76
39.629,-0.67,-0.48,0.03,0.82
39.639,-0.63,-0.68,-0.10,0.93
39.649,-0.48,-0.69,-0.34,0.91
39.659,-0.36,-0.53,-0.24,0.68
39.669,-0.34,-0.32,-0.05,0.47
39.678,-0.37,-0.21,0.22,0.48
39.688,-0.39,-0.28,0.32,0.57
39.698,-0.40,-0.46,0.38,0.71
39.708,-0.41,-0.64,0.33,0.83
39.718,-0.33,-0.75,0.28,0.87
39.728,-0.22,-0.78,0.31,0.86
39.738,-0.10,-0.58,0.16,0.61
39.748,0.03,-0.39,-0.19,0.43
39.758,0.21,-0.30,-0.72,0.80
39.768,0.41,-0.31,-1.26,1.36
39.778,0.61,-0.45,-1.50,1.68
39.788,0.76,-0.63,-1.32,1.65
39.798,0.79,-0.47,-0.68,1.15
39.808,0.58,-0.26,0.02,0.64
39.818,0.29,-0.38,0.35,0.60
39.828,0.10,-0.47,0.32,0.58
39.837,0.00,-0.43,0.17,0.46
39.848,-0.08,-0.62,-0.10,0.64
39.857,-0.13,-0.81,-0.26,0.86
39.867,-0.15,-0.79,-0.25,0.84
39.877,-0.05,-0.67,-0.15,0.69
39.887,0.03,-0.52,-0.06,0.52
39.897,0.07,-0.35,0.12,0.37
39.907,0.04,-0.28,0.31,0.42
39.917,-0.04,-0.33,0.40,0.52
39.927,-0.13,-0.36,0.32,0.50
39.937,-0.20,-0.37,0.28,0.51
39.947,-0.23,-0.26,0.30,0.46
39.957,-0.24,-0.20,0.35,0.47
39.967,-0.36,-0.35,0.61,0.79
39.977,-0.52,-0.58,0.94,1.22
39.987,-0.59,-0.54,1.08,1.35
39.997,-0.56,-0.25,0.96,1.14
40.007,-0.59,-0.20,0.68,0.93
40.017,-0.47,-0.45,-0.30,0.71
40.027,-0.20,-0.50,-1.00,1.13
40.037,0.15,-0.36,-1.43,1.48
40.047,0.39,-0.29,-1.29,1.38
40.056,0.56,-0.06,-0.87,1.04
40.066,0.48,0.02,-0.60,0.77
40.076,0.40,-0.13,-0.52,0.67
40.087,0.35,-0.21,-0.58,0.71
40.096,0.35,-0.19,-0.57,0.70
40.106,0.32,-0.29,-0.57,0.72
40.116,0.32,-0.51,-0.67,0.90
40.126,0.36,-0.58,-0.66,0.95
40.136,0.38,-0.53,-0.47,0.81
40.146,0.47,-0.48,-0.36,0.76
40.156,0.39,-0.54,-0.16,0.68
40.166,0.36,-0.48,-0.16,0.62
40.176,0.31,-0.40,-0.22,0.55
40.186,0.31,-0.37,-0.41,0.63
40.196,0.34,-0.33,-0.45,0.66
40.206,0.28,-0.27,-0.21,0.45
40.216,0.23,-0.14,-0.24,0.36
40.226,0.13,-0.04,-0.31,0.34
40.235,0.04,0.04,-0.36,0.37
40.245,-0.03,0.12,-0.45,0.47
40.255,-0.21,0.06,-0.38,0.44
40.265,-0.29,-0.04,-0.30,0.42
40.275,-0.33,-0.09,-0.23,0.41
40.285,-0.35,-0.14,-0.29,0.47
40.295,-0.27,-0.16,-0.35,0.47
40.305,-0.18,-0.25,-0.48,0.57
40.315,-0.15,-0.36,-0.51,0.65
40.325,-0.14,-0.49,-0.33,0.61
40.335,-0.12,-0.62,-0.07,0.63
40.345,-0.07,-0.76,0.18,0.78
40.355,-0.03,-0.81,0.31,0.87
40.365,0.02,-0.84,0.26,0.88
40.375,0.14,-0.85,0.04,0.86
40.385,0.19,-0.87,-0.04,0.89
40.395,0.31,-0.83,-0.21,0.91
40.405,0.42,-0.79,-0.31,0.95
40.414,0.53,-0.73,-0.49,1.03
40.425,0.63,-0.64,-0.51,1.03
40.434,0.68,-0.55,-0.46,0.99
40.444,0.77,-0.49,-0.58,1.08
40.454,0.78,-0.52,-0.53,1.07
40.464,0.70,-0.60,-0.55,1.07
40.474,0.44,-0.74,-0.25,0.89
40.484,0.29,-0.68,0.11,0.75
40.494,0.12,-0.61,0.33,0.70
40.504,-0.08,-0.68,0.56,0.88
40.514,-0.21,-0.74,0.64,1.00
40.524,-0.31,-0.82,0.64,1.09
40.534,-0.31,-0.86,0.53,1.06
40.544,-0.31,-0.80,0.43,0.96
40.554,-0.24,-0.74,0.47,0.91
40.564,-0.16,-0.66,0.37,0.77
40.574,-0.08,-0.59,0.14,0.61
40.584,0.01,-0.57,0.12,0.59
40.594,0.02,-0.56,0.05,0.56
40.604,-0.06,-0.66,0.07,0.67
40.613,-0.13,-0.69,0.07,0.71
40.624,-0.25,-0.63,0.18,0.70
40.633,-0.34,-0.65,0.35,0.81
40.643,-0.37,-0.71,0.51,0.95
40.653,-0.29,-0.74,0.43,0.90
40.663,-0.14,-0.72,0.09,0.74
40.673,0.05,-0.67,-0.39,0.78
40.683,0.22,-0.72,-0.63,0.98
40.693,0.36,-0.79,-0.77,1.16
40.703,0.51,-0.77,-0.84,1.24
40.713,0.53,-0.75,-0.68,1.14
40.723,0.50,-0.71,-0.52,1.01
40.733,0.43,-0.72,-0.24,0.87
40.743,0.30,-0.74,0.02,0.80
40.753,0.22,-0.73,0.22,0.79
40.763,0.14,-0.71,0.22,0.75
40.773,0.16,-0.65,0.01,0.67
40.783,0.29,-0.59,-0.24,0.70
40.793,0.43,-0.52,-0.48,0.83
40.803,0.60,-0.45,-0.78,1.08
40.812,0.72,-0.45,-0.75,1.13
40.822,0.77,-0.48,-0.73,1.17
40.832,0.77,-0.46,-0.68,1.12
40.842,0.82,-0.39,-0.64,1.11
40.852,0.87,-0.35,-0.53,1.08
40.862,0.84,-0.36,-0.40,1.00
40.872,0.74,-0.48,-0.27,0.92
40.882,0.72,-0.58,-0.27,0.97
40.892,0.65,-0.68,-0.16,0.95
40.902,0.48,-0.81,0.23,0.97
40.912,0.29,-0.89,0.62,1.13
40.922,0.13,-0.96,0.91,1.33
40.932,-0.03,-1.02,1.15,1.54
40.942,-0.14,-0.93,1.17,1.50
40.952,-0.16,-0.87,1.14,1.45
40.962,-0.06,-0.87,0.74,1.14
40.972,-0.01,-0.86,0.27,0.90
40.981,0.13,-0.76,-0.29,0.82
40.991,0.33,-0.57,-0.95,1.16
41.001,0.58,-0.47,-1.48,1.66
41.011,0.69,-0.49,-1.59,1.80
41.021,0.64,-0.39,-1.16,1.38
41.031,0.45,-0.30,-0.82,0.98
41.041,0.10,-0.35,-0.57,0.68
41.051,-0.21,-0.46,-0.45,0.68
41.061,-0.35,-0.53,-0.52,0.82
41.071,-0.45,-0.67,-0.73,1.09
41.081,-0.48,-0.78,-0.96,1.32
41.091,-0.41,-0.88,-1.04,1.42
41.101,-0.25,-1.01,-0.93,1.40
41.111,-0.09,-1.17,-0.66,1.34
41.121,-0.06,-1.28,-0.49,1.37
41.131,-0.05,-1.41,-0.35,1.46
41.141,0.01,-1.61,-0.29,1.64
41.151,0.06,-1.83,-0.29,1.85
41.161,0.02,-2.02,-0.14,2.03
41.171,-0.09,-2.14,0.33,2.17
41.181,-0.14,-2.08,0.76,2.22
41.190,-0.15,-1.94,0.98,2.18
41.200,-0.22,-1.71,1.14,2.07
41.210,-0.23,-1.49,1.28,1.98
41.220,-0.12,-1.37,0.78,1.58
41.230,0.05,-1.32,0.09,1.33
41.240,0.38,-1.14,-0.22,1.22
41.250,0.83,-0.88,-0.40,1.27
41.260,1.18,-0.67,-0.40,1.41
41.270,1.39,-0.49,-0.17,1.49
41.280,1.36,-0.30,0.02,1.40
41.290,1.19,-0.23,0.08,1.22
41.300,0.97,-0.27,0.21,1.03
41.310,0.66,-0.42,0.39,0.87
41.320,0.37,-0.61,0.57,0.91
41.330,0.13,-0.76,0.72,1.06
41.340,-0.18,-0.80,0.96,1.26
41.350,-0.50,-0.74,1.24,1.52
41.360,-0.76,-0.61,1.36,1.67
41.369,-0.93,-0.49,1.07,1.50
41.379,-0.95,-0.36,0.28,1.05
41.389,-0.74,-0.24,-0.88,1.18
41.399,-0.36,-0.17,-2.20,2.23
41.409,-0.03,0.03,-2.98,2.98
41.419,0.29,0.29,-3.11,3.13
41.429,0.42,0.59,-2.52,2.62
41.439,0.26,0.68,-1.68,1.83
41.449,-0.14,0.46,-0.92,1.03
41.459,-0.49,0.15,-0.58,0.77
41.469,-0.81,-0.13,-0.60,1.02
41.479,-1.16,-0.26,-0.61,1.34
41.489,-1.33,-0.45,-0.53,1.51
41.499,-1.27,-0.66,-0.50,1.52
41.509,-1.03,-0.79,-0.53,1.40
41.519,-0.72,-0.82,-0.68,1.29
41.529,-0.43,-0.85,-0.87,1.29
41.539,-0.28,-0.97,-0.92,1.37
41.548,-0.24,-1.11,-1.00,1.51
41.558,-0.19,-1.20,-1.17,1.69
41.568,-0.04,-1.21,-1.42,1.86
41.578,0.10,-1.20,-1.54,1.95
41.588,0.22,-1.12,-1.50,1.88
41.598,0.27,-1.06,-1.41,1.78
41.608,0.22,-1.05,-1.20,1.61
41.618,0.12,-1.08,-0.91,1.41
41.628,0.00,-1.16,-0.57,1.30
41.638,-0.06,-1.25,-0.28,1.28
41.648,-0.21,-1.27,-0.07,1.29
41.658,-0.31,-1.38,0.08,1.41
41.668,-0.37,-1.56,0.31,1.63
41.678,-0.34,-1.58,0.47,1.69
41.688,-0.30,-1.51,0.33,1.57
41.698,-0.29,-1.50,0.11,1.53
41.708,-0.21,-1.57,0.05,1.59
41.718,-0.15,-1.63,0.08,1.64
41.728,-0.11,-1.65,0.03,1.66
41.738,-0.10,-1.64,-0.09,1.64
41.747,-0.09,-1.62,-0.09,1.63
41.758,-0.11,-1.54,0.03,1.55
41.767,-0.12,-1.44,0.22,1.46
41.778,-0.18,-1.39,0.39,1.45
41.787,-0.22,-1.36,0.47,1.45
41.797,-0.25,-1.32,0.46,1.42
41.807,-0.31,-1.27,0.53,1.41
41.817,-0.32,-1.21,0.49,1.35
41.827,-0.27,-1.12,0.27,1.19
41.837,-0.10,-1.00,-0.05,1.01
41.847,0.08,-0.84,-0.39,0.93
41.857,0.20,-0.73,-0.63,0.98
41.867,0.31,-0.64,-0.65,0.97
41.877,0.39,-0.59,-0.49,0.87
41.887,0.37,-0.53,-0.26,0.70
41.897,0.31,-0.48,0.12,0.58
41.907,0.14,-0.50,0.61,0.80
41.917,0.03,-0.53,0.75,0.92
41.926,0.04,-0.59,0.36,0.69
41.936,0.08,-0.68,-0.11,0.69
41.946,0.20,-0.73,-0.40,0.86
41.957,0.31,-0.79,-0.56,1.02
41.966,0.37,-0.75,-0.74,1.11
41.976,0.33,-0.74,-0.69,1.07
41.986,0.30,-0.73,-0.53,0.95
41.996,0.29,-0.74,-0.44,0.91
42.006,0.28,-0.79,-0.53,0.99
42.016,0.26,-0.85,-0.68,1.12
42.026,0.29,-0.88,-0.83,1.25
42.036,0.31,-0.93,-0.93,1.35
42.046,0.25,-1.00,-0.80,1.31
42.056,0.15,-1.08,-0.62,1.25
42.066,0.05,-1.11,-0.49,1.22
42.076,-0.01,-1.19,-0.25,1.21
42.086,-0.05,-1.22,-0.11,1.23
42.096,-0.08,-1.23,-0.13,1.24
42.106,-0.02,-1.21,-0.16,1.22
