time,ax,ay,az,atotal
0.000,0.27,-0.18,0.07,0.33
0.010,0.17,-0.09,0.04,0.19
0.020,0.07,-0.07,0.14,0.17
0.030,-0.01,-0.04,0.28,0.28
0.040,-0.01,-0.15,0.37,0.40
0.050,0.08,-0.20,0.38,0.43
0.060,0.17,-0.01,0.12,0.21
0.070,0.15,0.02,-0.16,0.22
0.080,0.11,-0.03,-0.32,0.34
0.090,0.08,-0.05,-0.34,0.36
0.100,0.08,-0.09,-0.27,0.29
0.109,-0.11,-0.08,-0.13,0.19
0.119,-0.12,-0.02,0.01,0.12
0.129,-0.02,-0.10,0.07,0.13
0.139,-0.03,-0.12,0.12,0.17
0.149,-0.07,0.04,0.30,0.31
0.159,0.10,0.06,0.31,0.33
0.169,0.16,-0.04,0.09,0.19
0.179,0.20,-0.02,0.00,0.20
0.189,0.18,0.02,-0.09,0.21
0.199,0.23,0.05,-0.20,0.31
0.209,0.25,0.01,-0.22,0.33
0.219,0.23,-0.05,-0.16,0.29
0.229,0.12,-0.05,-0.07,0.15
0.239,0.12,-0.03,-0.02,0.13
0.249,0.16,-0.10,-0.05,0.19
0.259,0.25,-0.09,-0.06,0.27
0.269,0.28,-0.07,-0.05,0.30
0.279,0.24,-0.06,-0.12,0.27
0.289,0.21,-0.04,-0.20,0.29
0.298,0.11,-0.02,-0.14,0.18
0.308,0.06,-0.00,-0.04,0.07
0.318,0.09,0.00,0.00,0.09
0.328,0.15,-0.03,-0.00,0.16
0.338,0.08,-0.14,-0.08,0.18
0.348,0.05,-0.24,-0.11,0.27
0.358,0.10,-0.28,-0.12,0.32
0.368,0.06,-0.32,-0.12,0.35
0.378,0.07,-0.33,-0.23,0.41
0.388,0.06,-0.32,-0.34,0.47
0.398,0.01,-0.27,-0.39,0.47
0.408,0.03,-0.20,-0.42,0.47
0.418,0.05,-0.11,-0.42,0.43
0.428,0.03,-0.08,-0.33,0.34
0.438,0.07,-0.11,-0.33,0.36
0.448,0.11,-0.19,-0.31,0.37
0.458,0.20,-0.43,-0.23,0.53
0.468,0.27,-0.67,-0.30,0.78
0.478,0.51,-0.83,-0.28,1.02
0.488,0.61,-1.05,-0.45,1.30
0.498,0.88,-1.21,-0.69,1.65
0.507,1.08,-1.33,-0.97,1.96
0.517,1.27,-1.44,-1.27,2.30
0.527,1.33,-1.45,-1.37,2.40
0.537,1.27,-1.44,-1.44,2.40
0.547,1.05,-1.64,-1.47,2.44
0.557,1.32,-1.64,-1.45,2.56
0.567,1.70,-1.34,-1.16,2.46
0.577,1.11,-1.02,-0.79,1.70
0.587,0.53,-0.90,-0.46,1.14
0.597,0.65,-0.80,-0.14,1.04
0.607,0.61,-0.73,-0.17,0.96
0.617,0.97,-0.95,-0.61,1.49
0.627,1.14,-1.17,-0.55,1.72
0.637,1.68,-0.96,-0.21,1.95
0.647,1.69,-0.34,0.14,1.73
0.657,0.46,-0.25,0.71,0.88
0.667,-0.52,0.26,1.12,1.26
0.677,-1.19,-0.49,1.14,1.72
0.687,-2.07,-0.54,1.26,2.48
0.696,-2.54,0.46,1.08,2.79
0.706,-1.57,1.44,0.25,2.14
0.716,-0.48,1.66,-0.10,1.73
0.726,-0.14,1.32,-0.05,1.33
0.736,0.53,1.05,-0.08,1.17
0.746,1.62,0.77,-0.09,1.79
0.756,2.54,0.60,-0.21,2.62
0.766,2.78,0.71,-0.71,2.95
0.776,1.50,1.49,-0.90,2.30
0.786,-0.97,2.35,-0.40,2.57
0.796,-1.42,2.74,-0.22,3.09
0.806,-0.60,1.97,-0.86,2.23
0.816,0.76,-0.05,-1.25,1.46
0.826,0.67,-0.99,-0.78,1.43
0.836,0.09,-0.81,0.28,0.86
0.846,0.09,-0.18,-0.23,0.31
0.856,0.73,0.49,-0.71,1.13
0.866,0.50,1.20,0.45,1.37
0.876,0.41,1.78,1.98,2.70
0.886,-0.23,2.03,3.27,3.86
0.896,-0.33,1.69,4.04,4.39
0.905,-0.07,1.62,4.92,5.18
0.915,-0.09,1.81,5.69,5.97
0.925,-0.71,1.07,4.72,4.90
0.935,-1.56,-0.27,2.88,3.29
0.945,-2.82,-1.30,1.11,3.30
0.955,-3.96,-2.01,-0.26,4.45
0.965,-4.01,-1.96,-1.17,4.62
0.975,-3.38,-0.91,-1.82,3.94
0.985,-2.13,0.29,-2.59,3.37
0.995,-0.58,0.23,-1.88,1.98
1.005,0.01,-0.35,-0.59,0.68
1.015,0.35,0.10,0.52,0.64
1.025,0.73,0.40,1.45,1.67
1.035,0.75,-0.20,1.11,1.35
1.045,-0.14,-1.05,-0.14,1.07
1.055,-1.62,-1.27,-0.80,2.21
1.065,-1.21,-1.44,-1.24,2.25
1.075,-0.96,-1.79,-1.15,2.34
1.085,-0.69,-1.64,-0.57,1.87
1.095,-0.16,-1.30,0.19,1.33
1.105,1.14,-1.38,0.63,1.90
1.114,1.84,-1.49,1.11,2.62
1.124,1.22,-1.56,0.72,2.11
1.134,0.17,-1.83,-0.12,1.85
1.144,-0.97,-2.07,-1.10,2.53
1.154,-2.12,-2.09,-2.01,3.60
1.164,-3.30,-1.99,-2.47,4.57
1.174,-3.83,-1.91,-2.22,4.82
1.184,-3.27,-2.12,-1.43,4.15
1.194,-2.37,-2.20,-0.13,3.24
1.204,-1.83,-2.09,1.31,3.07
1.214,-1.55,-2.14,1.99,3.31
1.224,-1.10,-2.07,2.03,3.11
1.234,-1.09,-1.86,1.79,2.80
1.244,-1.57,-1.80,1.05,2.60
1.254,-0.06,-2.20,-0.71,2.32
1.264,-0.54,-1.94,-0.72,2.14
1.274,-1.46,-1.20,-0.46,1.95
1.284,-1.84,-1.16,-0.19,2.19
1.294,-1.61,-1.29,0.11,2.06
1.303,-1.43,-1.34,0.49,2.02
1.313,-1.33,-1.26,0.83,2.01
1.323,-0.97,-1.07,1.04,1.78
1.333,-0.35,-1.01,0.80,1.33
1.343,0.37,-0.78,0.28,0.91
1.353,1.02,0.09,-0.65,1.21
1.363,1.25,0.83,-1.69,2.26
1.373,0.78,1.29,-2.40,2.83
1.383,3.95,3.65,-3.98,6.69
1.393,5.70,3.79,-2.81,7.40
1.403,0.69,-0.16,-0.57,0.91
1.413,-2.20,-1.40,0.76,2.72
1.423,-3.56,-0.98,2.25,4.32
1.433,-2.94,1.04,1.79,3.59
1.443,-1.59,2.08,-0.39,2.65
1.453,-0.56,2.05,-1.79,2.78
1.463,0.18,1.77,-2.98,3.47
1.473,1.04,1.47,-2.97,3.48
1.483,1.58,1.41,-1.90,2.84
1.492,1.53,1.33,-0.30,2.05
1.502,0.79,0.79,1.63,1.97
1.513,-0.47,0.39,4.22,4.26
1.522,-1.05,0.19,4.60,4.72
1.532,-1.42,-0.20,4.17,4.41
1.542,-1.35,-0.34,2.77,3.10
1.552,-0.78,-0.46,1.58,1.83
1.562,0.58,-0.44,1.06,1.29
1.572,1.26,-0.20,1.07,1.67
1.582,1.22,-0.32,1.33,1.83
1.592,0.65,-0.59,1.68,1.90
1.602,-0.07,-0.58,1.84,1.93
1.612,-0.78,-0.13,1.12,1.37
1.622,-1.26,0.10,-0.41,1.33
1.632,-0.75,0.29,-1.58,1.78
1.642,0.25,0.62,-2.22,2.32
1.652,1.19,0.77,-2.29,2.69
1.662,1.92,0.81,-1.64,2.66
1.672,2.12,0.90,-0.57,2.37
1.682,1.93,1.01,0.48,2.23
1.692,1.33,1.11,1.13,2.07
1.701,0.24,1.05,1.21,1.62
1.712,-0.83,0.99,0.04,1.29
1.721,-1.60,0.74,-1.47,2.30
1.732,-1.96,0.60,-2.28,3.07
1.741,-1.66,0.85,-2.44,3.08
1.751,-1.04,1.01,-1.96,2.44
1.761,-0.20,0.80,-1.28,1.52
1.771,0.85,0.73,-0.05,1.12
1.781,1.38,0.88,1.06,1.95
1.791,1.22,0.93,1.61,2.22
1.801,0.42,0.67,1.89,2.05
1.811,-0.12,0.49,1.10,1.21
1.821,0.03,0.19,0.18,0.26
1.831,0.22,0.01,0.03,0.22
1.841,0.31,0.07,0.58,0.66
1.851,0.40,0.10,1.45,1.51
1.861,0.27,0.17,2.23,2.25
1.871,-0.12,0.34,2.37,2.40
1.881,-0.06,0.60,1.73,1.83
1.891,0.66,0.88,0.72,1.32
1.900,0.45,0.87,-0.42,1.07
1.910,0.09,1.39,-4.31,4.53
1.920,-0.95,2.38,-8.27,8.66
1.930,-1.88,2.01,-7.46,7.95
1.940,-2.67,0.85,-3.83,4.75
1.950,-3.55,0.88,-2.82,4.62
1.960,-2.35,0.06,-1.03,2.57
1.970,-0.33,-0.36,0.47,0.67
1.980,-0.70,-0.02,-0.17,0.72
1.990,-0.87,-0.45,0.11,0.99
2.000,0.18,-1.01,0.11,1.04
2.010,0.91,-0.92,-0.77,1.51
2.020,0.03,-1.08,-2.18,2.43
2.030,-1.18,-2.80,-2.97,4.25
2.040,-4.32,-4.11,-1.78,6.22
2.050,-5.45,-3.80,1.24,6.76
2.060,-5.05,-2.50,5.15,7.63
2.070,-2.52,-1.54,7.62,8.18
2.080,1.62,-1.07,5.03,5.39
2.089,5.13,-0.00,1.89,5.47
2.099,6.35,0.58,-0.82,6.43
2.109,6.47,2.27,-3.40,7.65
2.119,7.14,4.27,-4.56,9.49
2.129,3.52,3.42,-2.17,5.36
2.139,1.02,2.54,-1.04,2.93
2.149,0.90,2.76,-0.71,2.99
2.159,1.88,3.42,-0.63,3.95
2.169,0.44,2.48,-0.38,2.54
2.179,-0.39,1.42,-0.83,1.69
2.189,-0.54,0.92,-1.09,1.52
2.199,-0.33,1.05,-0.49,1.20
2.209,0.79,1.36,0.34,1.61
2.219,1.23,0.30,1.38,1.87
2.229,-0.05,0.39,0.37,0.54
2.239,0.67,1.23,-1.53,2.07
2.249,1.58,1.52,-2.54,3.35
2.259,1.10,1.22,-1.91,2.52
2.269,0.54,-1.14,0.96,1.58
2.279,-2.81,-3.08,3.34,5.34
2.288,-4.98,-4.45,3.37,7.48
2.298,-1.01,-3.72,1.42,4.11
2.309,0.48,-1.79,-0.21,1.87
2.318,0.77,-1.45,-0.10,1.64
2.328,0.15,-3.02,0.89,3.15
2.338,0.41,-3.07,1.92,3.64
2.348,0.84,-0.57,1.01,1.43
2.358,-0.25,1.72,1.22,2.12
2.368,-1.25,2.85,1.29,3.37
2.378,1.18,1.00,-0.42,1.60
2.388,1.30,1.01,-0.99,1.92
2.398,-0.28,0.82,-0.84,1.21
2.408,-0.24,0.47,-0.73,0.90
2.418,-0.37,-0.31,-0.24,0.54
2.428,-0.69,-1.39,-0.04,1.55
2.438,-0.60,-1.85,-0.35,1.98
2.448,-0.18,-1.57,-1.12,1.94
2.458,-0.14,-0.92,-0.38,1.00
2.470,-0.52,-0.21,0.21,0.60
2.478,-0.29,0.22,-0.24,0.44
2.487,-0.31,0.56,-0.73,0.97
2.497,-0.32,0.69,-0.49,0.91
2.507,-0.19,0.56,-0.04,0.59
2.517,-0.03,0.14,0.21,0.26
2.527,-0.02,-0.42,0.36,0.55
2.537,-0.78,-0.03,0.69,1.04
2.547,-0.68,0.02,-0.03,0.68
2.557,-0.76,-0.55,-0.22,0.97
2.567,-0.54,-0.85,-0.12,1.01
2.577,-0.29,-1.14,0.23,1.20
2.587,0.01,-1.09,0.16,1.10
2.597,0.96,-0.62,0.32,1.19
2.607,0.94,0.12,0.21,0.97
2.617,0.68,0.77,0.07,1.03
2.627,0.36,1.08,0.14,1.15
2.637,0.21,1.01,0.02,1.03
2.647,0.03,0.69,0.01,0.69
2.657,0.07,0.37,0.11,0.39
2.667,-0.21,0.41,0.21,0.51
2.676,-0.73,0.63,0.05,0.97
2.687,-0.96,1.55,0.22,1.84
2.696,0.66,2.37,0.62,2.53
2.706,1.49,1.26,0.24,1.97
2.716,0.09,1.24,-0.45,1.32
2.726,-0.30,2.33,-0.23,2.36
2.736,-0.13,2.92,0.05,2.92
2.746,0.16,3.33,-0.13,3.34
2.756,0.14,2.70,-0.58,2.77
2.766,0.06,1.06,-0.34,1.11
2.776,0.34,-0.82,-0.14,0.89
2.786,0.13,-2.80,-0.07,2.81
2.796,0.41,-3.04,-0.06,3.06
2.806,0.32,-2.54,0.07,2.56
2.816,0.16,-2.00,0.17,2.01
2.826,0.16,-2.12,0.10,2.13
2.836,0.60,-0.45,-0.76,1.07
2.846,-0.13,0.04,-0.25,0.29
2.856,-0.58,0.05,0.30,0.65
2.866,-0.55,1.13,0.11,1.26
2.876,-0.38,0.85,-0.14,0.94
2.886,0.50,1.42,-1.08,1.85
2.895,-0.16,-0.72,0.01,0.74
2.905,-0.61,-1.10,0.27,1.28
2.915,-0.50,-1.26,0.47,1.43
2.925,0.64,0.93,-0.57,1.27
2.935,-0.03,1.43,-1.34,1.96
2.945,-0.00,6.35,-2.18,6.71
2.955,-0.56,11.39,-0.58,11.42
2.965,0.13,10.32,-0.64,10.34
2.975,-0.79,4.34,-2.21,4.93
2.985,-2.50,2.07,-1.55,3.60
2.995,-4.00,6.00,-0.69,7.25
3.005,-6.16,0.11,-5.46,8.23
3.015,-4.01,-4.54,-5.20,7.98
3.025,-2.05,-4.78,-1.43,5.40
3.035,-2.24,-0.08,1.80,2.88
3.045,-3.33,5.50,1.20,6.54
3.055,-3.85,5.69,1.78,7.09
3.065,-3.15,4.01,1.28,5.26
3.075,0.59,-0.20,0.42,0.75
3.085,6.54,-8.99,1.18,11.18
3.095,8.93,-9.26,1.03,12.90
3.105,8.67,-8.93,0.16,12.44
3.114,3.94,-8.92,0.94,9.80
3.124,0.61,-5.83,-0.15,5.86
3.134,-1.26,-5.46,-0.19,5.60
3.144,-2.51,-5.22,-0.36,5.80
3.154,-2.36,-4.66,-0.04,5.22
3.164,-0.90,-3.17,0.67,3.37
3.174,0.60,-1.61,0.13,1.73
3.184,0.28,-0.86,-0.36,0.97
3.194,-0.06,-0.33,-0.36,0.49
3.204,0.03,0.11,-0.55,0.56
3.214,0.04,0.18,-0.70,0.72
3.224,0.04,-0.00,-0.38,0.38
3.234,0.22,-0.21,0.09,0.32
3.244,0.45,-0.40,0.41,0.73
3.254,0.56,-0.69,0.59,1.07
3.264,0.59,-0.64,0.58,1.04
3.274,0.22,-0.37,0.08,0.44
3.284,-0.11,0.27,-0.56,0.63
3.293,-1.10,1.39,-1.17,2.12
3.304,-1.83,1.50,-1.31,2.70
3.313,-1.10,1.01,-0.67,1.64
3.324,-0.35,0.79,0.13,0.87
3.333,-0.10,0.44,0.48,0.66
3.343,-0.06,0.29,0.55,0.62
3.353,0.11,0.20,0.32,0.39
3.363,0.22,-0.03,0.11,0.25
3.373,0.25,-0.22,-0.11,0.35
3.383,0.15,-0.03,-0.07,0.16
3.393,-0.12,0.06,0.04,0.14
3.403,-0.23,0.04,0.10,0.25
3.413,-0.13,-0.01,0.20,0.24
3.423,0.02,-0.04,0.27,0.28
3.433,0.04,-0.06,0.19,0.21
3.443,-0.00,-0.03,0.04,0.05
3.453,-0.14,-0.03,-0.12,0.19
3.463,0.08,-0.27,-0.13,0.31
3.473,0.11,-0.27,-0.08,0.30
3.483,0.05,-0.01,-0.28,0.28
3.492,0.36,0.12,-0.22,0.44
3.503,0.51,0.34,0.23,0.65
3.512,0.44,0.31,0.50,0.73
3.522,0.26,0.09,0.48,0.55
3.532,0.17,0.03,0.37,0.40
3.542,0.18,0.05,0.21,0.28
3.552,0.15,0.05,0.05,0.16
3.562,0.16,0.07,-0.04,0.18
3.572,0.11,0.04,-0.03,0.12
3.582,0.08,0.03,0.02,0.09
3.592,0.07,0.05,0.05,0.09
3.602,0.07,0.08,0.10,0.14
3.612,0.03,0.12,0.15,0.19
3.622,0.02,0.11,0.16,0.20
3.632,0.02,0.10,0.11,0.15
3.642,0.06,0.06,0.03,0.09
3.652,0.10,0.00,0.03,0.10
3.662,0.09,-0.02,0.06,0.12
3.672,0.08,-0.05,0.08,0.13
3.682,0.04,-0.04,0.04,0.07
3.691,-0.02,-0.05,0.02,0.06
3.702,-0.10,-0.03,0.01,0.10
3.711,-0.15,-0.01,-0.04,0.15
3.721,-0.20,0.01,-0.08,0.21
3.731,-0.28,0.03,-0.12,0.30
3.741,-0.33,0.03,-0.13,0.35
3.751,-0.35,0.06,-0.13,0.38
3.761,-0.35,0.11,-0.12,0.38
3.771,-0.34,0.16,-0.12,0.39
3.781,-0.33,0.18,-0.13,0.40
3.791,-0.34,0.23,-0.11,0.43
3.801,-0.38,0.23,-0.12,0.46
3.811,-0.41,0.25,-0.13,0.50
3.821,-0.53,0.23,-0.16,0.59
3.831,-0.59,0.17,-0.16,0.63
3.841,-0.71,0.12,-0.23,0.75
3.851,-0.76,0.02,-0.36,0.84
3.861,-0.66,-0.13,-0.46,0.82
3.871,-0.54,-0.23,-0.47,0.75
3.881,-0.38,-0.27,-0.36,0.59
3.890,-0.26,-0.30,-0.17,0.43
3.900,-0.22,-0.29,0.02,0.36
3.910,-0.15,-0.19,0.21,0.32
3.921,-0.08,-0.08,0.37,0.39
3.930,-0.05,0.03,0.44,0.44
3.940,-0.03,0.11,0.41,0.42
3.950,-0.01,0.16,0.30,0.34
3.960,-0.05,0.20,0.13,0.24
3.970,-0.04,0.16,-0.02,0.16
3.980,-0.09,0.07,-0.16,0.20
3.990,-0.22,-0.05,-0.26,0.35
4.000,-0.30,-0.08,-0.28,0.42
4.010,-0.27,-0.21,-0.33,0.47
4.020,-0.22,-0.23,-0.29,0.43
4.030,-0.23,-0.18,-0.17,0.33
4.040,-0.47,-0.03,-0.23,0.53
4.050,-0.35,0.17,-0.13,0.41
4.060,0.04,-0.08,0.12,0.15
4.070,-0.04,0.04,0.05,0.08
4.080,-0.11,0.23,-0.03,0.25
4.089,0.08,0.10,0.05,0.14
4.100,0.18,0.03,-0.04,0.18
4.109,0.10,0.04,-0.16,0.19
4.120,0.12,-0.06,-0.11,0.17
4.129,0.09,-0.17,-0.10,0.22
4.139,-0.04,-0.14,-0.02,0.15
4.149,-0.08,-0.19,0.13,0.25
4.159,-0.12,-0.21,0.25,0.35
4.169,0.06,-0.12,0.33,0.36
4.179,0.09,-0.12,0.32,0.35
4.189,0.47,-0.13,0.20,0.53
4.199,0.67,-0.07,0.28,0.73
4.209,0.71,-0.10,0.27,0.77
4.219,0.61,0.00,0.26,0.66
4.229,0.61,-0.04,0.41,0.73
4.239,0.83,-0.08,0.34,0.90
4.249,0.86,-0.01,0.33,0.92
4.259,0.91,-0.01,0.38,0.98
4.269,0.97,-0.02,0.41,1.06
4.279,1.03,-0.02,0.44,1.12
4.289,1.04,-0.01,0.44,1.13
4.299,1.01,-0.02,0.48,1.11
4.308,0.91,-0.04,0.45,1.02
4.319,0.80,-0.05,0.42,0.91
4.328,0.69,-0.03,0.36,0.78
4.338,0.63,0.01,0.33,0.71
4.348,0.60,0.05,0.32,0.68
4.358,0.49,0.05,0.30,0.57
4.368,0.37,0.03,0.27,0.46
4.378,0.24,-0.00,0.16,0.29
4.388,0.06,-0.03,0.07,0.10
4.398,-0.03,-0.03,0.02,0.05
4.408,-0.05,-0.02,-0.04,0.07
4.418,-0.10,-0.05,-0.12,0.16
4.428,-0.34,-0.07,-0.24,0.43
4.438,-0.48,-0.09,-0.29,0.57
4.448,-0.59,-0.15,-0.21,0.64
4.458,-0.59,-0.13,-0.15,0.63
4.468,-0.71,-0.10,-0.14,0.73
4.478,-0.75,-0.02,-0.18,0.78
4.487,-0.67,0.07,-0.19,0.70
4.498,-0.62,0.19,-0.23,0.69
4.507,-0.56,0.36,-0.13,0.68
4.517,-0.47,0.48,-0.02,0.67
4.527,-0.32,0.52,0.06,0.61
4.537,-0.13,0.47,0.17,0.52
4.547,0.02,0.37,0.18,0.41
4.557,0.04,0.27,0.07,0.29
4.567,0.04,0.18,-0.05,0.19
4.577,0.05,0.11,-0.07,0.14
4.587,0.03,0.04,-0.10,0.11
4.597,-0.01,-0.06,-0.11,0.13
4.607,-0.07,-0.12,-0.13,0.20
4.617,-0.15,-0.16,-0.08,0.23
4.627,-0.15,-0.10,0.01,0.18
4.637,-0.05,-0.09,0.07,0.13
4.647,0.09,-0.07,0.14,0.18
4.657,0.27,-0.05,0.19,0.34
4.667,0.38,-0.07,0.24,0.45
4.677,0.45,-0.08,0.20,0.49
4.686,0.44,-0.11,0.17,0.48
4.696,0.37,-0.12,0.10,0.40
4.706,0.33,-0.09,0.10,0.36
4.716,0.30,-0.05,0.13,0.33
4.726,0.21,-0.04,0.14,0.26
4.736,0.19,-0.01,0.12,0.23
4.746,0.21,-0.00,0.11,0.24
4.756,0.13,-0.03,0.12,0.18
4.766,0.10,-0.03,0.12,0.16
4.776,0.13,0.00,0.08,0.15
4.786,0.10,0.01,0.05,0.11
4.796,0.03,-0.00,0.04,0.05
4.806,-0.04,-0.00,0.04,0.06
4.816,-0.06,0.03,0.03,0.08
4.826,-0.11,0.06,0.02,0.13
4.836,-0.10,0.07,0.02,0.12
4.846,-0.09,0.07,0.02,0.11
4.856,-0.10,0.07,0.00,0.12
4.865,-0.06,0.05,0.01,0.08
4.876,-0.04,0.05,0.01,0.07
4.885,-0.05,0.04,0.02,0.06
4.896,-0.05,0.04,0.03,0.07
4.905,-0.02,0.04,0.03,0.05
4.915,-0.01,0.03,-0.00,0.03
4.925,0.00,0.01,0.02,0.03
4.935,0.02,0.03,0.01,0.04
4.945,0.00,0.03,0.03,0.04
4.955,0.02,0.05,0.03,0.06
4.965,0.03,0.04,0.01,0.05
4.975,0.03,0.06,-0.00,0.07
4.985,0.02,0.05,-0.01,0.05
4.995,0.00,0.04,0.01,0.04
5.005,0.03,0.04,0.01,0.05
5.015,0.00,0.04,0.05,0.06
5.025,0.00,0.03,0.05,0.06
5.035,0.00,0.04,0.05,0.07
5.045,0.01,0.05,0.05,0.07
5.055,0.02,0.05,0.04,0.07
5.065,0.01,0.03,0.02,0.04
5.075,-0.01,0.04,0.03,0.05
5.084,0.01,0.04,0.05,0.06
5.095,0.05,0.03,0.04,0.07
5.104,0.05,0.04,0.03,0.07
5.114,0.04,0.03,0.03,0.06
5.124,0.02,0.02,0.05,0.06
5.135,0.03,0.01,0.03,0.05
5.144,0.03,0.02,0.04,0.05
5.154,-0.00,0.00,0.04,0.04
5.164,0.02,0.03,0.04,0.05
5.174,0.03,0.02,0.04,0.06
5.184,0.03,-0.00,0.03,0.04
5.194,0.01,-0.03,0.01,0.03
5.204,-0.01,-0.01,0.04,0.04
5.214,-0.01,-0.01,0.05,0.05
5.224,0.01,-0.02,0.04,0.04
5.234,0.01,-0.01,0.04,0.05
5.244,-0.03,0.02,0.04,0.05
5.254,-0.02,0.03,0.05,0.06
5.264,-0.01,0.02,0.04,0.05
5.274,-0.01,0.03,0.03,0.04
5.284,-0.03,0.01,0.03,0.04
5.294,0.01,0.04,0.05,0.06
5.303,0.02,0.05,0.05,0.07
5.313,0.04,0.05,0.02,0.06
5.323,0.06,0.04,0.01,0.07
5.333,0.05,0.02,0.00,0.06
5.343,0.04,0.03,0.02,0.06
5.353,0.03,0.01,0.02,0.04
5.363,0.03,0.02,0.01,0.04
5.373,0.03,0.02,0.03,0.04
5.383,0.01,0.03,0.02,0.04
5.393,-0.00,0.04,0.02,0.04
5.403,0.00,0.02,0.00,0.02
5.413,-0.02,0.04,0.02,0.05
5.423,-0.02,0.04,0.04,0.06
5.433,-0.02,0.04,0.04,0.06
5.443,-0.02,0.04,0.02,0.05
5.453,-0.02,0.02,0.01,0.03
5.463,-0.04,0.02,0.03,0.05
5.473,-0.05,0.02,0.04,0.07
5.483,-0.03,0.02,0.04,0.06
5.493,-0.01,0.03,0.01,0.04
5.502,-0.02,0.03,0.00,0.04
5.513,-0.02,0.02,0.03,0.03
5.522,-0.01,0.02,0.03,0.04
5.532,-0.01,0.02,0.01,0.03
5.542,0.01,0.02,0.01,0.02
5.552,0.01,-0.01,0.02,0.02
5.562,0.02,-0.00,0.01,0.02
5.572,0.06,0.00,0.00,0.06
5.582,0.07,-0.00,-0.00,0.07
5.592,0.03,0.01,0.03,0.04
5.602,0.01,-0.00,0.03,0.03
5.612,0.00,0.03,0.05,0.06
5.622,0.03,0.03,0.04,0.06
5.632,0.05,0.05,0.01,0.07
5.642,0.02,0.03,0.00,0.03
5.652,0.01,0.03,0.03,0.04
5.662,0.02,0.04,0.04,0.06
5.672,0.03,0.03,0.03,0.05
5.682,-0.02,0.03,0.05,0.06
5.691,-0.01,0.04,0.06,0.07
5.701,0.00,0.04,0.05,0.06
5.711,0.00,0.02,0.03,0.04
5.721,-0.01,0.04,0.02,0.04
5.731,-0.00,0.02,0.02,0.03
5.741,0.01,0.01,0.03,0.03
5.751,0.01,0.01,0.03,0.03
5.761,0.03,0.01,0.01,0.03
5.771,-0.01,-0.02,-0.00,0.02
5.781,-0.03,-0.01,0.01,0.04
5.791,-0.03,0.01,0.03,0.04
5.801,-0.03,0.03,-0.00,0.04
5.811,-0.03,0.03,-0.00,0.04
5.821,-0.03,0.02,0.02,0.04
5.831,-0.01,0.03,0.01,0.04
5.841,-0.00,0.03,0.00,0.03
5.851,0.01,0.02,0.01,0.02
5.861,-0.02,0.02,0.02,0.04
5.871,-0.03,0.01,0.04,0.05
5.881,-0.03,0.02,0.03,0.05
5.891,0.01,0.04,0.01,0.04
5.900,0.00,0.04,0.02,0.04
5.911,-0.01,0.03,0.04,0.05
5.920,0.01,0.04,0.04,0.05
5.930,0.01,0.03,0.02,0.03
5.940,0.02,0.02,0.02,0.03
5.950,-0.00,0.01,0.03,0.04
5.960,0.01,0.03,0.04,0.05
5.970,-0.00,0.03,0.03,0.05
5.980,0.01,0.02,0.02,0.03
5.990,0.01,0.05,0.02,0.05
6.000,-0.03,0.02,0.03,0.05
6.010,-0.02,0.02,0.04,0.05
6.020,0.01,0.01,0.01,0.02
6.030,0.02,0.01,-0.01,0.03
6.040,0.01,0.02,-0.01,0.02
6.050,0.01,0.02,0.02,0.03
6.060,-0.01,0.01,0.02,0.03
6.070,-0.02,0.01,0.02,0.03
6.079,-0.03,0.02,0.03,0.04
6.090,-0.03,0.03,-0.01,0.05
6.100,-0.02,0.01,0.00,0.03
6.110,0.02,0.00,0.01,0.02
6.119,0.01,-0.02,0.02,0.03
6.130,-0.02,-0.02,0.02,0.03
6.139,-0.02,-0.01,0.05,0.05
6.149,0.01,-0.02,0.02,0.03
6.159,0.01,0.01,-0.02,0.02
6.169,-0.00,-0.00,0.01,0.01
6.179,-0.02,0.01,0.02,0.03
6.189,0.00,0.03,0.02,0.04
6.199,-0.03,0.02,0.02,0.05
6.209,0.00,0.04,0.02,0.05
6.219,-0.01,0.05,0.03,0.06
6.229,0.01,0.04,0.02,0.05
6.239,0.02,0.03,0.03,0.05
6.249,0.00,0.05,0.02,0.06
6.259,-0.00,0.06,0.04,0.07
6.269,-0.03,0.04,0.05,0.08
6.278,-0.01,0.06,0.05,0.07
6.289,-0.00,0.02,0.01,0.03
6.298,-0.02,0.01,0.01,0.02
6.308,-0.00,0.01,0.02,0.02
6.318,-0.01,0.00,0.01,0.02
6.328,-0.01,0.00,0.01,0.02
6.338,0.01,-0.00,0.01,0.02
6.348,-0.01,-0.01,-0.01,0.02
6.358,-0.01,-0.02,-0.00,0.02
6.368,-0.00,0.01,0.01,0.01
6.378,0.01,0.04,0.01,0.04
6.388,-0.01,0.02,0.01,0.03
6.398,-0.03,-0.01,0.01,0.03
6.408,-0.01,-0.02,0.01,0.02
6.418,0.02,-0.00,0.00,0.02
6.428,0.03,0.01,-0.02,0.04
6.438,-0.02,0.00,0.00,0.02
6.448,-0.04,-0.00,0.03,0.05
6.458,-0.02,0.02,0.03,0.04
6.468,0.02,0.02,0.03,0.04
6.478,-0.05,0.03,0.03,0.07
6.488,-0.02,0.04,0.00,0.04
6.497,-0.03,0.02,0.00,0.03
6.507,-0.01,0.04,0.00,0.04
6.517,0.00,0.03,0.02,0.03
6.527,-0.04,0.01,0.05,0.06
6.537,-0.03,0.02,0.05,0.06
6.547,0.02,0.03,0.03,0.05
6.557,0.04,0.02,-0.00,0.04
6.567,0.02,0.02,0.01,0.03
6.577,0.02,0.01,0.02,0.03
6.587,-0.01,0.01,0.03,0.03
6.597,-0.01,0.00,0.04,0.05
6.607,0.01,0.04,0.02,0.05
6.617,-0.00,0.04,0.02,0.04
6.627,-0.02,0.00,0.01,0.02
6.637,0.00,0.01,0.01,0.02
6.647,0.02,0.01,0.01,0.03
6.657,0.00,-0.01,0.02,0.02
6.667,-0.01,-0.00,0.03,0.03
6.677,-0.00,0.01,0.03,0.03
6.687,-0.01,0.02,0.00,0.02
6.696,-0.00,0.00,0.01,0.01
6.707,-0.02,0.00,0.02,0.03
6.716,-0.01,-0.00,0.02,0.02
6.726,-0.01,0.02,0.04,0.05
6.736,0.03,0.02,0.01,0.04
6.746,0.00,0.02,-0.01,0.02
6.756,0.01,0.01,0.00,0.01
6.766,0.00,0.00,0.00,0.00
6.776,0.01,0.02,-0.01,0.02
6.786,-0.00,-0.00,0.02,0.02
6.796,-0.02,0.01,0.03,0.04
6.806,0.01,0.04,0.02,0.04
6.816,0.03,0.04,0.01,0.05
6.826,0.04,0.02,-0.01,0.05
6.836,-0.01,-0.02,-0.01,0.02
6.846,-0.01,0.01,-0.00,0.02
6.856,-0.01,0.01,-0.02,0.02
6.866,0.02,0.01,-0.02,0.04
6.876,0.06,-0.01,-0.03,0.07
6.886,0.07,-0.02,-0.00,0.07
6.896,0.05,-0.01,0.02,0.06
6.906,0.08,0.02,0.02,0.08
6.915,0.10,0.01,0.01,0.11
6.925,-0.01,0.01,0.04,0.05
6.935,-0.00,-0.01,0.04,0.04
6.945,0.03,-0.03,-0.02,0.04
6.955,0.03,-0.02,-0.05,0.06
6.965,-0.01,0.02,-0.03,0.04
6.975,-0.03,0.03,-0.02,0.05
6.985,-0.01,0.03,-0.03,0.05
6.995,0.04,0.02,-0.05,0.06
7.005,0.09,-0.03,-0.10,0.14
7.015,0.21,-0.04,-0.05,0.22
7.025,0.32,-0.01,0.04,0.32
7.035,0.33,0.03,0.02,0.33
7.045,0.31,0.02,-0.03,0.31
7.055,0.31,-0.02,-0.03,0.32
7.065,0.32,-0.06,0.00,0.32
7.075,0.30,-0.07,0.06,0.31
7.085,0.29,-0.06,0.12,0.32
7.094,0.27,-0.02,0.19,0.33
7.104,0.24,0.04,0.22,0.33
7.114,0.24,0.06,0.26,0.36
7.124,0.19,0.11,0.26,0.34
7.134,0.16,0.07,0.22,0.28
7.144,0.09,0.05,0.20,0.22
7.154,0.11,0.02,0.25,0.28
7.164,0.13,-0.03,0.30,0.33
7.174,0.21,0.00,0.39,0.44
7.184,0.30,0.04,0.41,0.51
7.194,0.41,0.07,0.43,0.60
7.204,0.33,0.11,0.40,0.54
7.214,0.19,0.11,0.32,0.38
7.224,0.13,0.05,0.23,0.27
7.234,0.05,-0.01,0.12,0.14
7.244,-0.07,-0.03,0.01,0.07
7.254,-0.11,-0.15,-0.03,0.19
7.264,-0.15,-0.28,-0.09,0.34
7.274,-0.30,-0.24,-0.20,0.43
7.284,-0.29,-0.22,-0.19,0.41
7.294,-0.18,-0.22,-0.16,0.33
7.304,-0.24,-0.18,-0.05,0.30
7.313,-0.30,-0.06,0.00,0.31
7.323,-0.26,-0.03,0.09,0.28
7.333,-0.32,-0.04,0.05,0.33
7.343,-0.28,-0.07,-0.07,0.30
7.353,-0.24,-0.07,-0.15,0.29
7.363,-0.22,-0.05,-0.23,0.32
7.373,-0.25,-0.09,-0.26,0.37
7.383,-0.29,-0.01,-0.31,0.43
7.393,-0.27,0.01,-0.30,0.40
7.403,-0.28,0.01,-0.28,0.39
7.413,-0.29,0.04,-0.21,0.36
7.423,-0.27,0.05,-0.10,0.30
7.433,-0.24,0.07,0.00,0.25
7.443,-0.21,0.07,0.07,0.24
7.453,-0.16,0.09,0.09,0.20
7.463,-0.15,0.10,0.04,0.18
7.473,-0.14,0.08,0.01,0.16
7.483,-0.15,0.05,-0.03,0.16
7.492,-0.12,0.05,-0.08,0.15
7.502,-0.15,0.03,-0.11,0.19
7.512,-0.19,0.02,-0.13,0.24
7.522,-0.16,0.02,-0.12,0.20
7.532,-0.11,0.02,-0.09,0.15
7.542,-0.10,0.03,-0.07,0.12
7.552,-0.08,0.04,-0.02,0.09
7.562,-0.08,0.04,0.03,0.09
7.572,-0.04,0.01,0.03,0.05
7.582,0.00,0.00,0.01,0.01
7.592,0.02,0.01,0.02,0.03
7.602,0.02,0.01,0.03,0.04
7.612,0.02,0.00,0.07,0.07
7.622,0.08,-0.02,0.08,0.12
7.632,0.09,0.01,0.01,0.09
7.642,0.08,-0.00,0.04,0.09
7.652,0.14,-0.01,0.08,0.16
7.662,0.17,-0.01,0.07,0.18
7.671,0.24,-0.04,0.06,0.26
7.682,0.25,-0.06,0.09,0.27
7.691,0.25,-0.01,0.02,0.25
7.701,0.31,-0.03,0.02,0.31
7.711,0.42,-0.06,0.03,0.43
7.721,0.48,-0.08,0.07,0.49
7.731,0.43,-0.02,0.06,0.44
7.741,0.50,-0.05,0.19,0.53
7.751,0.45,-0.05,0.20,0.49
7.761,0.45,-0.06,0.20,0.50
7.771,0.37,-0.06,0.18,0.42
7.781,0.32,-0.06,0.16,0.36
7.791,0.27,-0.04,0.17,0.32
7.801,0.26,0.00,0.17,0.31
7.811,0.20,0.03,0.12,0.24
7.821,0.11,0.07,0.06,0.14
7.831,0.11,0.08,0.04,0.14
7.841,0.05,0.03,0.09,0.10
7.851,0.00,0.04,0.04,0.06
7.861,-0.06,0.00,0.03,0.06
7.870,-0.09,-0.03,0.01,0.10
7.881,-0.11,-0.06,-0.02,0.13
7.890,0.01,-0.06,-0.00,0.06
7.900,0.10,-0.08,-0.02,0.13
7.910,0.17,-0.11,-0.04,0.21
7.920,0.29,-0.09,0.03,0.31
7.930,0.39,-0.09,0.10,0.41
7.940,0.40,-0.06,0.13,0.43
7.950,0.35,-0.09,0.13,0.38
7.960,0.22,-0.06,0.08,0.24
7.970,0.11,0.00,0.06,0.13
7.980,-0.05,-0.03,0.06,0.08
7.990,-0.19,0.07,0.05,0.21
8.000,-0.26,0.05,0.14,0.30
8.010,-0.38,0.12,0.05,0.41
8.020,-0.46,0.16,0.00,0.49
8.030,-0.38,0.08,0.04,0.39
8.040,-0.24,-0.05,0.03,0.25
8.050,-0.29,0.03,-0.09,0.31
8.060,-0.23,0.05,-0.05,0.24
8.070,-0.14,0.04,-0.02,0.15
8.080,-0.14,0.03,-0.03,0.14
8.089,-0.05,-0.10,0.12,0.16
8.099,-0.19,0.07,-0.04,0.21
8.109,-0.25,0.09,-0.06,0.27
8.119,-0.23,-0.03,-0.07,0.24
8.129,-0.20,-0.13,-0.14,0.28
8.139,-0.16,-0.32,-0.09,0.37
8.149,-0.26,-0.28,-0.24,0.45
8.159,-0.26,-0.25,-0.21,0.42
8.169,-0.14,-0.31,-0.07,0.35
8.179,-0.05,-0.25,-0.08,0.26
8.189,0.09,-0.24,-0.00,0.26
8.199,0.11,-0.22,-0.01,0.25
8.209,0.01,0.16,-0.23,0.27
8.219,0.05,0.22,0.07,0.23
8.229,0.07,0.33,0.24,0.42
8.239,0.02,0.45,0.33,0.56
8.249,-0.05,0.52,0.39,0.65
8.259,0.03,0.33,0.44,0.55
8.269,-0.06,0.27,0.15,0.31
8.279,-0.26,0.40,-0.07,0.48
8.288,-0.28,0.11,-0.15,0.33
8.299,-0.16,-0.21,-0.29,0.39
8.308,-0.12,-0.29,-0.38,0.49
8.318,-0.16,-0.27,-0.39,0.50
8.328,-0.20,-0.22,-0.32,0.43
8.338,-0.12,-0.24,-0.22,0.35
8.348,-0.29,0.08,-0.38,0.49
8.358,-0.26,0.13,-0.14,0.32
8.368,-0.11,0.09,0.03,0.15
8.378,-0.11,0.04,0.08,0.14
8.388,-0.15,-0.04,0.08,0.17
8.398,-0.16,-0.06,0.14,0.22
8.408,-0.27,-0.08,0.13,0.31
8.418,-0.38,-0.09,0.08,0.40
8.428,-0.51,-0.02,-0.11,0.52
8.438,-0.47,0.04,-0.19,0.51
8.448,-0.28,-0.00,-0.23,0.36
8.458,-0.15,-0.03,-0.22,0.27
8.467,-0.12,-0.04,-0.17,0.21
8.478,-0.16,-0.05,-0.15,0.23
8.487,-0.15,-0.01,-0.11,0.19
8.497,-0.27,0.05,-0.02,0.28
8.508,-0.33,0.14,0.04,0.36
8.517,-0.30,0.19,0.04,0.35
8.527,-0.21,0.17,0.02,0.27
8.537,-0.10,0.11,-0.01,0.15
8.547,-0.01,0.02,-0.04,0.05
8.557,0.10,0.02,-0.06,0.12
8.567,0.15,0.07,-0.02,0.16
8.577,0.12,0.08,0.05,0.15
8.587,0.07,0.07,0.12,0.15
8.597,0.11,0.03,0.10,0.15
8.607,0.15,0.03,0.07,0.16
8.617,0.09,0.01,0.08,0.12
8.627,0.02,0.03,0.11,0.11
8.637,0.00,0.07,0.12,0.14
8.647,0.06,0.09,0.12,0.16
8.657,0.08,0.09,0.12,0.17
8.667,0.06,0.08,0.14,0.17
8.677,0.05,0.06,0.18,0.20
8.686,0.04,0.00,0.16,0.16
8.696,0.09,-0.06,0.05,0.12
8.706,0.09,-0.14,-0.06,0.18
8.716,0.08,-0.16,-0.10,0.20
8.726,0.05,-0.15,-0.10,0.19
8.736,0.04,-0.12,-0.06,0.14
8.746,-0.02,-0.09,-0.04,0.09
8.756,-0.05,-0.02,-0.01,0.06
8.766,-0.04,0.02,0.04,0.06
8.776,-0.07,-0.01,0.04,0.08
8.786,-0.11,-0.04,-0.03,0.12
8.796,-0.16,-0.00,-0.05,0.17
8.806,-0.16,0.02,-0.10,0.19
8.816,-0.10,0.03,-0.07,0.13
8.826,-0.04,0.09,-0.01,0.10
8.836,-0.03,0.16,0.03,0.17
8.846,0.01,0.23,0.14,0.27
8.856,0.05,0.24,0.19,0.31
8.866,0.09,0.21,0.17,0.28
8.876,0.08,0.14,0.07,0.18
8.885,0.09,0.06,-0.03,0.11
8.896,0.11,0.01,-0.12,0.16
8.905,0.11,-0.04,-0.17,0.21
8.916,0.07,-0.10,-0.18,0.22
8.925,0.04,-0.09,-0.15,0.18
8.935,-0.04,-0.08,-0.06,0.10
8.945,-0.04,-0.03,0.02,0.06
8.955,-0.02,0.01,0.04,0.04
8.965,0.06,0.09,0.05,0.12
8.975,0.06,0.11,0.14,0.18
8.985,0.05,0.12,0.23,0.27
8.995,0.01,0.17,0.28,0.32
9.005,-0.04,0.15,0.22,0.27
9.015,-0.07,0.14,0.12,0.20
9.025,-0.08,0.09,0.07,0.14
9.035,-0.04,0.01,0.03,0.05
9.045,0.01,-0.06,-0.01,0.06
9.055,0.06,-0.09,-0.03,0.11
9.065,0.02,-0.14,-0.07,0.16
9.075,-0.01,-0.13,-0.09,0.16
9.085,-0.06,-0.08,-0.08,0.13
9.095,-0.07,0.00,-0.10,0.12
9.104,-0.08,0.07,-0.09,0.14
9.114,-0.06,0.06,-0.03,0.09
9.124,0.01,0.08,0.04,0.09
9.134,0.05,0.08,0.10,0.14
9.144,0.07,0.03,0.13,0.15
9.154,0.06,-0.00,0.14,0.15
9.164,0.07,-0.02,0.12,0.14
9.174,0.03,-0.04,0.09,0.10
9.184,0.05,-0.04,-0.01,0.06
9.194,0.09,-0.02,-0.11,0.15
9.204,0.08,-0.03,-0.13,0.15
9.214,0.07,-0.00,-0.08,0.11
9.224,0.06,0.04,-0.01,0.07
9.234,0.11,0.06,0.07,0.14
9.244,0.06,0.04,0.15,0.17
9.254,0.07,0.07,0.23,0.25
9.264,0.04,0.07,0.24,0.25
9.274,0.03,0.06,0.16,0.18
9.283,-0.03,0.04,0.07,0.09
9.294,-0.10,0.01,0.00,0.10
9.303,-0.10,-0.00,-0.05,0.11
9.313,-0.04,-0.01,-0.10,0.11
9.323,0.03,-0.03,-0.16,0.17
9.333,0.03,-0.08,-0.15,0.17
9.343,0.05,-0.07,-0.12,0.15
9.353,0.07,-0.06,-0.01,0.09
9.363,0.07,-0.03,0.04,0.09
9.373,0.02,0.01,0.07,0.07
9.383,-0.03,0.03,0.10,0.11
9.393,-0.10,0.08,0.14,0.19
9.403,-0.10,0.11,0.09,0.17
9.413,-0.03,0.13,-0.01,0.13
9.423,-0.01,0.06,-0.05,0.08
9.433,0.02,0.03,-0.02,0.04
9.443,0.01,0.01,0.02,0.03
9.453,0.01,0.01,-0.03,0.03
9.463,-0.04,0.03,-0.06,0.07
9.473,-0.11,0.02,-0.04,0.12
9.482,-0.12,0.04,-0.00,0.13
9.493,-0.09,0.08,0.02,0.12
9.502,-0.07,0.08,0.01,0.11
9.512,-0.09,0.03,-0.01,0.09
9.522,-0.06,0.01,0.00,0.06
9.532,0.00,0.01,0.06,0.06
9.542,0.04,-0.00,0.05,0.06
9.552,0.03,-0.04,-0.01,0.05
9.562,0.01,-0.04,-0.03,0.06
9.572,0.05,-0.01,-0.03,0.06
9.582,0.03,0.02,0.00,0.03
9.592,0.03,0.06,0.02,0.07
9.602,0.00,0.05,0.05,0.07
9.612,-0.00,0.05,0.08,0.09
9.622,0.02,0.05,0.12,0.14
9.632,0.04,0.02,0.08,0.10
9.642,0.06,-0.02,0.02,0.07
9.652,0.08,-0.03,-0.01,0.09
9.662,0.07,-0.01,0.02,0.07
9.672,0.09,0.00,0.01,0.09
9.681,0.11,0.01,0.02,0.11
9.691,0.08,-0.00,0.05,0.10
9.701,0.08,-0.01,0.05,0.09
9.711,0.06,0.00,0.09,0.11
9.721,0.09,-0.01,0.07,0.11
9.731,0.14,-0.03,0.01,0.14
9.741,0.12,-0.05,0.01,0.13
9.751,0.14,-0.00,0.09,0.16
9.761,0.14,0.02,0.14,0.20
9.771,0.11,0.00,0.10,0.15
9.781,0.04,-0.01,0.03,0.05
9.791,-0.03,-0.04,-0.05,0.07
9.801,-0.15,-0.03,-0.08,0.18
9.811,-0.26,-0.02,-0.12,0.28
9.821,-0.31,0.06,-0.15,0.35
9.831,-0.29,0.11,-0.12,0.34
9.841,-0.23,0.16,0.00,0.28
9.851,-0.13,0.16,0.09,0.23
9.861,-0.07,0.14,0.09,0.18
9.871,-0.04,0.10,0.06,0.13
9.880,-0.05,0.10,0.04,0.12
9.891,-0.05,0.05,-0.00,0.07
9.900,-0.05,0.03,-0.09,0.10
9.910,-0.06,0.04,-0.16,0.18
9.920,-0.08,0.04,-0.13,0.16
9.930,-0.10,0.04,-0.05,0.12
9.940,-0.11,0.03,-0.02,0.11
9.950,-0.04,0.03,-0.01,0.05
9.960,0.00,0.04,-0.01,0.04
9.970,0.06,-0.01,-0.01,0.06
9.980,0.08,-0.06,0.04,0.11
9.990,0.09,-0.07,0.01,0.12
10.000,0.03,-0.07,-0.03,0.08
10.010,-0.03,-0.04,-0.03,0.06
10.020,-0.05,0.00,-0.01,0.05
10.030,-0.05,0.02,0.02,0.06
10.040,-0.05,0.03,0.01,0.06
10.050,-0.06,0.03,0.04,0.08
10.060,0.02,0.04,0.06,0.07
10.070,0.10,0.04,0.10,0.14
10.079,0.14,0.05,0.07,0.17
10.090,0.23,0.04,0.09,0.25
10.099,0.21,0.02,0.09,0.23
10.109,0.18,0.02,0.11,0.22
10.119,0.11,0.00,0.12,0.16
10.129,0.04,0.01,0.06,0.07
10.139,-0.03,0.01,-0.01,0.03
10.149,-0.06,0.03,0.02,0.07
10.159,-0.05,0.03,0.05,0.08
10.169,0.02,0.03,0.02,0.04
10.179,0.05,0.01,-0.01,0.05
10.189,0.02,0.01,0.00,0.03
10.199,-0.00,0.03,0.03,0.04
10.209,-0.03,0.02,0.05,0.06
10.219,-0.02,0.03,-0.02,0.04
10.229,-0.03,0.02,-0.10,0.10
10.239,-0.03,0.03,-0.08,0.09
10.249,-0.04,0.02,-0.02,0.05
10.259,-0.02,0.02,-0.01,0.03
10.269,-0.06,0.06,-0.03,0.08
10.279,-0.08,0.07,0.01,0.11
10.289,-0.12,0.05,0.06,0.14
10.298,-0.08,0.08,0.06,0.13
10.308,-0.03,0.08,0.01,0.09
10.318,-0.04,0.03,-0.02,0.05
10.328,-0.07,0.01,-0.00,0.07
10.338,-0.01,0.04,0.01,0.04
10.348,0.05,0.03,0.02,0.06
10.358,0.06,-0.01,-0.02,0.06
10.368,0.01,-0.04,-0.02,0.04
10.378,0.01,0.01,0.02,0.03
10.388,0.03,0.01,0.07,0.08
10.398,0.02,0.00,0.04,0.05
10.408,-0.03,-0.00,0.02,0.04
10.418,-0.02,0.01,0.01,0.03
10.428,0.02,0.01,0.06,0.06
10.438,0.05,0.02,0.04,0.07
10.448,0.09,0.01,0.03,0.10
10.458,0.09,-0.05,0.03,0.11
10.468,0.09,-0.03,0.05,0.10
10.477,0.07,-0.01,0.06,0.09
10.488,0.08,0.02,-0.03,0.09
10.497,0.06,0.04,-0.04,0.08
10.507,-0.02,0.06,0.01,0.07
10.517,-0.04,0.08,0.06,0.11
10.527,-0.02,0.09,0.08,0.12
10.537,-0.03,0.10,0.04,0.11
10.547,-0.02,0.08,0.00,0.08
10.557,0.01,0.05,-0.03,0.06
10.567,0.00,0.02,-0.04,0.05
10.577,0.00,0.03,-0.07,0.08
10.587,-0.07,0.03,-0.03,0.08
10.597,-0.13,0.05,-0.02,0.14
10.607,-0.16,0.08,0.04,0.18
10.617,-0.10,0.05,0.02,0.11
10.627,-0.05,0.05,-0.05,0.08
10.637,-0.04,0.00,-0.05,0.06
10.647,-0.04,-0.01,0.01,0.04
10.656,-0.08,-0.05,0.06,0.11
10.667,-0.05,-0.02,0.03,0.06
10.676,-0.01,-0.01,-0.02,0.03
10.686,0.03,-0.04,-0.06,0.08
10.696,0.01,-0.04,0.01,0.04
10.706,-0.04,-0.02,0.07,0.08
10.716,-0.05,-0.00,0.03,0.05
10.727,-0.01,0.04,-0.02,0.04
10.736,0.06,0.05,-0.01,0.08
10.746,0.06,0.02,0.03,0.07
10.756,0.05,0.01,0.04,0.06
10.766,0.07,0.04,0.04,0.09
10.776,0.15,0.06,0.00,0.16
10.786,0.15,0.03,0.02,0.16
10.796,0.12,0.04,0.08,0.15
10.806,0.03,0.06,0.07,0.10
10.816,0.03,0.07,0.03,0.09
10.826,0.04,0.05,0.02,0.07
10.836,-0.01,0.03,0.04,0.05
10.846,-0.05,0.03,0.02,0.06
10.856,-0.09,0.04,-0.01,0.10
10.866,-0.06,0.06,-0.01,0.08
10.876,-0.06,0.04,0.01,0.07
10.886,-0.04,0.01,0.02,0.05
10.895,-0.03,0.02,0.01,0.04
10.905,-0.06,-0.00,0.04,0.07
10.915,-0.04,0.02,0.08,0.09
10.925,-0.02,-0.01,0.05,0.06
10.935,-0.01,-0.02,0.03,0.03
10.945,-0.05,-0.02,-0.01,0.05
10.955,-0.08,-0.00,0.01,0.08
10.965,-0.10,0.01,0.05,0.11
10.975,-0.06,0.02,0.04,0.07
10.985,-0.01,0.04,-0.02,0.05
10.995,-0.03,0.02,-0.02,0.04
11.005,-0.00,0.02,-0.03,0.03
11.015,0.05,0.02,-0.02,0.05
11.025,0.11,0.02,-0.03,0.11
11.035,0.13,0.02,-0.07,0.15
11.045,0.12,-0.00,-0.06,0.14
11.055,0.11,0.01,-0.00,0.11
11.065,0.08,0.06,0.01,0.10
11.075,0.05,0.07,-0.00,0.09
11.085,-0.03,0.06,-0.01,0.07
11.095,-0.10,0.05,0.04,0.12
11.104,-0.12,0.06,0.08,0.16
11.114,-0.12,0.06,0.07,0.15
11.125,-0.11,0.05,0.07,0.14
11.134,-0.11,0.06,0.07,0.15
11.144,-0.12,0.07,0.08,0.16
11.154,-0.13,0.07,0.08,0.17
11.164,-0.15,0.08,0.06,0.18
11.174,-0.19,0.06,0.04,0.21
11.184,-0.19,0.06,0.02,0.20
11.194,-0.16,0.08,-0.00,0.18
11.204,-0.15,0.05,-0.02,0.16
11.214,-0.17,0.06,-0.01,0.18
11.224,-0.25,0.07,0.06,0.27
11.234,-0.37,0.13,0.14,0.42
11.244,-0.45,0.14,0.21,0.51
11.254,-0.44,0.11,0.24,0.52
11.264,-0.37,0.09,0.17,0.42
11.274,-0.25,0.06,0.04,0.26
11.284,-0.04,0.04,-0.15,0.16
11.293,0.20,0.04,-0.26,0.33
11.304,0.37,0.05,-0.24,0.44
11.313,0.19,0.09,-0.07,0.22
11.323,-0.00,0.17,0.15,0.23
11.333,-0.18,0.17,0.31,0.40
11.343,-0.33,0.09,0.30,0.46
11.353,-0.32,0.01,0.16,0.36
11.363,-0.16,-0.01,0.01,0.16
11.373,0.02,-0.08,-0.15,0.17
11.383,0.22,-0.14,-0.32,0.41
11.393,0.38,-0.15,-0.50,0.65
11.403,0.43,-0.14,-0.61,0.76
11.413,0.32,-0.09,-0.55,0.65
11.423,0.16,-0.03,-0.39,0.43
11.433,0.06,-0.00,-0.12,0.14
11.443,-0.07,0.02,0.15,0.17
11.453,-0.17,-0.00,0.33,0.37
11.463,-0.19,-0.01,0.37,0.42
11.473,-0.16,-0.05,0.28,0.32
11.483,-0.08,-0.02,0.18,0.20
11.492,-0.07,0.02,0.13,0.15
11.503,0.03,0.04,0.02,0.05
11.512,0.18,0.05,-0.09,0.21
11.522,0.33,0.07,-0.11,0.35
11.532,0.43,0.09,-0.04,0.44
11.542,0.48,0.11,0.03,0.49
11.552,0.42,0.06,0.13,0.44
11.562,0.30,0.02,0.17,0.34
11.572,0.20,0.01,0.19,0.27
11.582,0.05,0.02,0.19,0.20
11.592,-0.07,0.00,0.15,0.17
11.602,-0.12,-0.02,0.01,0.12
11.612,-0.03,-0.01,-0.15,0.15
11.622,0.06,0.01,-0.18,0.19
11.632,0.11,0.00,-0.12,0.16
11.642,0.12,0.02,0.00,0.13
11.652,0.10,0.06,0.13,0.17
11.662,0.09,0.09,0.19,0.23
11.672,-0.01,0.06,0.21,0.22
11.682,-0.08,0.02,0.15,0.17
11.691,-0.11,0.00,0.06,0.12
11.701,-0.14,-0.01,-0.02,0.14
11.711,-0.17,-0.06,-0.12,0.22
11.721,-0.08,-0.04,-0.15,0.17
11.731,0.04,-0.00,-0.11,0.12
11.741,0.13,0.03,-0.03,0.13
11.751,0.17,0.04,0.04,0.18
11.761,0.13,0.04,0.10,0.17
11.771,0.11,0.07,0.16,0.21
11.781,0.08,0.07,0.15,0.18
11.791,0.01,0.06,0.11,0.13
11.801,-0.07,0.01,0.05,0.08
11.811,-0.11,-0.04,-0.05,0.13
11.821,-0.06,-0.05,-0.07,0.10
11.831,0.04,-0.01,-0.11,0.11
11.841,0.12,-0.03,-0.09,0.15
11.851,0.13,-0.00,-0.03,0.14
11.861,0.16,0.02,0.04,0.17
11.871,0.14,0.04,0.11,0.18
11.881,0.10,0.06,0.12,0.17
11.890,0.01,0.05,0.11,0.13
11.900,-0.09,0.03,0.11,0.15
11.910,-0.18,0.04,0.05,0.20
11.920,-0.22,0.06,-0.04,0.23
11.930,-0.22,0.04,-0.11,0.25
11.940,-0.22,0.03,-0.14,0.26
11.950,-0.17,0.03,-0.10,0.20
11.960,-0.10,0.03,-0.07,0.12
11.970,-0.01,0.04,-0.03,0.05
11.980,0.04,0.04,0.02,0.06
11.990,0.04,0.03,0.04,0.06
12.000,0.04,0.04,0.05,0.07
12.010,0.05,0.03,0.07,0.10
12.020,0.04,0.04,0.09,0.10
12.030,0.03,0.02,0.08,0.09
12.040,-0.01,0.03,0.08,0.08
12.050,0.03,0.05,0.04,0.07
12.060,0.07,0.08,0.01,0.10
12.069,0.11,0.08,0.01,0.14
12.080,0.11,0.08,0.02,0.14
12.089,0.11,0.08,0.06,0.15
12.100,0.11,0.05,0.05,0.13
12.109,0.09,0.02,0.04,0.10
12.119,0.06,0.01,0.03,0.07
12.129,0.03,0.00,0.04,0.05
12.139,-0.00,-0.04,0.05,0.06
12.149,-0.02,-0.04,0.04,0.06
12.159,-0.04,-0.03,0.03,0.06
12.169,-0.07,0.01,0.02,0.07
12.179,-0.08,0.03,0.00,0.09
12.189,-0.07,0.05,-0.02,0.09
12.199,-0.05,0.05,-0.01,0.07
12.209,-0.08,0.05,-0.01,0.10
12.219,-0.12,0.06,0.00,0.14
12.229,-0.15,0.08,0.02,0.17
12.239,-0.18,0.09,0.01,0.21
12.249,-0.22,0.13,0.02,0.25
12.259,-0.31,0.11,0.04,0.33
12.269,-0.32,0.13,0.00,0.34
12.279,-0.37,0.15,-0.00,0.40
12.288,-0.44,0.16,-0.06,0.47
12.298,-0.51,0.12,-0.14,0.54
12.308,-0.55,0.08,-0.22,0.59
12.318,-0.52,0.02,-0.29,0.59
12.328,-0.43,-0.03,-0.34,0.55
12.338,-0.33,-0.04,-0.33,0.47
12.348,-0.22,-0.07,-0.20,0.31
12.358,-0.17,-0.07,-0.06,0.19
12.368,-0.08,-0.04,0.03,0.09
12.378,0.01,0.01,0.11,0.11
12.388,0.09,0.05,0.11,0.15
12.398,0.09,0.01,0.11,0.14
12.408,0.09,-0.01,0.06,0.11
12.418,0.07,-0.06,-0.02,0.09
12.428,0.06,-0.12,-0.06,0.14
12.438,0.05,-0.15,-0.06,0.17
12.448,0.08,-0.14,-0.02,0.17
12.458,0.16,-0.11,0.05,0.20
12.468,0.24,-0.06,0.14,0.28
12.478,0.25,-0.01,0.19,0.32
12.487,0.28,0.04,0.22,0.36
12.497,0.32,0.09,0.21,0.39
12.507,0.35,0.07,0.17,0.40
12.517,0.33,0.09,0.07,0.34
12.527,0.26,0.09,-0.02,0.27
12.537,0.26,0.09,-0.02,0.27
12.547,0.19,0.11,-0.01,0.22
12.557,0.13,0.11,-0.00,0.17
12.567,0.07,0.07,0.05,0.11
12.577,0.05,0.04,0.09,0.11
12.587,0.06,0.06,0.12,0.15
12.597,0.08,0.09,0.12,0.17
12.607,0.11,0.11,0.10,0.18
12.617,0.13,0.11,0.14,0.22
12.627,0.13,0.09,0.08,0.18
12.637,0.10,0.07,-0.01,0.13
12.647,0.09,0.03,-0.10,0.14
12.657,0.10,0.01,-0.14,0.17
12.667,0.11,0.04,-0.06,0.13
12.677,0.13,-0.00,0.01,0.13
12.687,0.13,0.03,0.11,0.17
12.696,0.16,0.06,0.18,0.25
12.706,0.15,0.07,0.21,0.27
12.716,0.15,0.05,0.16,0.22
12.726,0.12,0.05,0.07,0.15
12.736,0.07,0.02,0.02,0.08
12.746,0.03,-0.02,-0.01,0.03
12.756,0.01,-0.03,0.01,0.03
12.766,0.02,-0.03,0.00,0.04
12.776,0.05,-0.04,0.00,0.06
12.786,0.03,-0.04,0.02,0.05
12.796,0.07,-0.02,0.05,0.09
12.806,0.08,-0.01,0.04,0.09
12.816,0.05,-0.01,0.02,0.05
12.826,0.02,-0.02,0.04,0.05
12.836,-0.02,-0.02,0.05,0.05
12.846,-0.03,-0.02,0.01,0.04
12.856,-0.03,-0.00,-0.02,0.03
12.866,-0.02,0.01,-0.01,0.03
12.876,-0.10,0.02,-0.03,0.11
12.885,-0.10,0.05,-0.00,0.12
12.896,-0.06,0.10,-0.00,0.11
12.905,-0.03,0.11,-0.04,0.12
12.915,-0.05,0.08,-0.02,0.10
12.925,-0.04,0.06,0.01,0.07
12.935,0.00,0.06,0.00,0.06
12.945,0.01,0.05,-0.02,0.05
12.955,0.01,0.04,-0.02,0.05
12.965,0.01,0.02,0.00,0.02
12.975,-0.00,0.01,0.03,0.03
12.985,0.01,0.03,0.04,0.06
12.995,0.02,0.02,0.04,0.05
13.005,0.01,0.02,0.06,0.07
13.015,-0.00,0.01,0.06,0.06
13.025,0.01,-0.00,0.07,0.07
13.035,0.05,0.02,0.01,0.05
13.045,0.07,0.01,0.01,0.07
13.055,0.04,-0.03,0.03,0.06
13.065,0.03,-0.04,0.06,0.08
13.075,0.01,-0.01,0.04,0.04
13.084,0.04,0.02,0.01,0.04
13.095,0.02,0.05,-0.01,0.05
13.104,-0.01,0.05,0.00,0.05
13.114,-0.04,0.05,0.04,0.08
13.124,-0.01,0.05,0.00,0.06
13.134,0.01,0.06,-0.04,0.07
13.144,-0.03,0.04,0.00,0.06
13.154,-0.04,0.06,0.05,0.09
13.164,-0.02,0.07,0.04,0.08
13.174,-0.02,0.07,-0.02,0.08
13.184,-0.04,0.05,-0.02,0.07
13.194,-0.07,0.05,-0.00,0.09
13.204,-0.06,0.05,-0.02,0.07
13.214,-0.05,0.04,-0.06,0.09
13.224,-0.03,0.03,-0.03,0.05
13.234,-0.04,0.03,0.02,0.05
13.244,-0.05,0.01,0.02,0.05
13.254,-0.01,0.00,0.01,0.01
13.264,0.01,0.03,0.01,0.04
13.274,0.01,0.04,0.01,0.04
13.283,-0.02,0.04,0.02,0.05
13.294,-0.05,0.02,-0.01,0.05
13.303,-0.03,0.02,-0.04,0.05
13.314,-0.07,0.03,-0.01,0.08
13.323,-0.09,0.01,-0.01,0.09
13.333,-0.08,0.04,-0.02,0.09
13.343,-0.07,0.07,-0.02,0.10
13.353,-0.00,0.01,0.05,0.05
13.363,0.05,-0.00,0.04,0.07
13.373,0.03,0.02,0.05,0.07
13.383,0.04,0.02,0.04,0.06
13.393,0.03,0.02,0.04,0.06
13.403,-0.01,0.05,0.01,0.05
13.413,0.00,0.03,0.00,0.03
13.423,-0.00,0.04,0.03,0.05
13.433,0.02,0.04,0.01,0.04
13.443,0.05,0.05,-0.02,0.08
13.453,0.05,0.03,-0.01,0.06
13.462,0.04,0.01,0.03,0.06
13.473,0.03,-0.01,0.04,0.05
13.482,0.03,-0.01,0.02,0.04
13.493,0.06,0.02,0.04,0.07
13.502,0.05,0.02,0.09,0.10
13.512,0.06,0.01,0.12,0.14
13.522,0.07,0.01,0.07,0.10
13.532,0.10,0.02,0.03,0.11
13.542,0.06,0.03,0.07,0.09
13.552,0.03,0.04,0.04,0.06
13.562,0.06,0.03,0.04,0.08
13.572,0.07,0.02,0.03,0.08
13.582,0.06,0.01,0.01,0.06
13.592,0.03,-0.01,0.04,0.05
13.603,0.01,-0.02,0.04,0.05
13.612,0.00,0.02,0.03,0.04
13.622,0.01,0.05,0.01,0.05
13.632,0.00,0.05,0.01,0.05
13.642,-0.01,0.06,0.01,0.06
13.652,-0.00,0.07,0.01,0.07
13.662,-0.00,0.09,-0.01,0.09
13.672,-0.01,0.08,0.00,0.08
13.681,-0.04,0.05,0.00,0.06
13.692,-0.03,0.05,0.02,0.06
13.701,-0.05,0.06,-0.01,0.08
13.711,-0.01,0.07,-0.02,0.08
13.721,-0.05,0.07,0.01,0.09
13.731,-0.07,0.03,0.02,0.08
13.741,-0.06,0.03,0.04,0.08
13.751,-0.01,0.05,0.00,0.05
13.761,-0.01,0.05,-0.00,0.05
13.771,-0.03,0.01,0.01,0.04
13.781,-0.01,0.01,0.00,0.02
13.791,-0.01,0.01,0.01,0.02
13.801,-0.02,0.02,-0.00,0.03
13.811,-0.02,0.01,0.05,0.06
13.821,-0.03,0.01,0.06,0.06
13.831,0.00,0.01,0.04,0.04
13.841,0.02,0.01,0.00,0.02
13.851,0.05,0.02,0.01,0.05
13.861,0.01,0.01,0.04,0.05
13.871,-0.01,0.00,0.07,0.07
13.880,0.02,0.00,0.06,0.06
13.891,0.06,0.01,0.02,0.06
13.900,0.05,0.00,0.02,0.06
13.910,0.03,-0.02,0.02,0.04
13.920,0.03,-0.00,0.00,0.03
13.930,0.03,0.02,-0.03,0.05
13.940,0.03,0.03,0.02,0.04
13.950,0.02,0.04,0.03,0.05
13.960,0.02,0.03,0.03,0.05
13.970,0.03,0.04,0.01,0.05
13.980,0.05,0.05,0.02,0.07
13.990,0.03,0.04,0.03,0.06
14.000,-0.02,0.05,0.04,0.06
14.010,-0.02,0.06,0.01,0.06
14.020,-0.01,0.05,-0.03,0.06
14.030,0.01,0.05,-0.02,0.06
14.040,-0.03,0.04,0.01,0.05
14.050,-0.02,0.05,0.02,0.06
14.060,-0.03,0.05,0.00,0.06
14.070,-0.03,0.06,0.01,0.07
14.080,-0.02,0.05,0.02,0.06
14.089,-0.03,0.03,0.03,0.05
14.099,-0.03,0.03,0.03,0.05
14.109,-0.01,0.03,-0.01,0.04
14.119,-0.02,0.03,0.02,0.04
14.129,-0.05,0.00,0.04,0.06
14.139,-0.03,0.03,0.04,0.06
14.149,0.01,0.05,0.01,0.05
14.159,0.05,0.02,-0.00,0.06
14.169,0.02,0.00,0.02,0.03
14.179,0.01,-0.01,0.05,0.05
14.189,0.00,0.01,0.02,0.03
14.199,0.02,0.00,0.01,0.03
14.209,0.03,0.02,0.01,0.04
14.219,-0.02,0.00,0.01,0.02
14.229,-0.01,0.01,0.02,0.03
14.239,0.00,0.03,-0.00,0.03
14.249,0.03,0.05,-0.03,0.07
14.259,-0.01,0.05,0.01,0.05
14.269,-0.03,0.03,0.05,0.07
14.278,0.02,0.04,0.04,0.06
14.289,0.05,0.04,0.01,0.06
14.298,0.04,0.03,0.01,0.05
14.309,0.01,0.00,0.02,0.02
14.318,0.02,0.00,0.01,0.02
14.328,0.02,0.04,-0.01,0.04
14.338,0.03,0.05,-0.03,0.06
14.348,-0.02,0.05,0.01,0.05
14.358,-0.04,0.02,0.02,0.05
14.368,-0.02,0.06,-0.00,0.06
14.378,-0.00,0.08,0.00,0.08
14.388,-0.02,0.08,0.00,0.08
14.398,-0.04,0.06,0.02,0.08
14.408,-0.03,0.08,0.04,0.09
14.418,-0.02,0.05,0.01,0.06
14.428,0.02,0.04,0.01,0.05
14.438,-0.01,0.01,0.03,0.03
14.448,-0.03,-0.01,0.02,0.04
14.458,-0.02,-0.02,0.03,0.04
14.468,-0.00,-0.00,-0.01,0.01
14.478,0.01,0.00,0.01,0.02
14.488,-0.03,-0.02,0.03,0.05
14.497,-0.01,-0.02,0.03,0.04
14.507,0.01,-0.01,0.00,0.01
14.517,-0.00,-0.01,0.00,0.01
14.527,-0.01,-0.01,0.04,0.04
14.537,-0.04,0.01,0.02,0.05
14.547,-0.01,0.02,0.00,0.03
14.557,0.03,0.01,-0.01,0.03
14.567,0.04,0.02,0.01,0.05
14.577,0.03,0.02,0.03,0.05
14.587,0.01,0.03,0.06,0.07
14.597,0.02,0.06,0.04,0.08
14.607,0.04,0.07,0.01,0.08
14.617,0.01,0.06,0.01,0.06
14.627,-0.02,0.06,0.02,0.07
14.637,-0.01,0.07,-0.01,0.07
14.647,0.01,0.06,-0.02,0.06
14.656,0.02,0.05,0.00,0.05
14.667,0.01,0.04,0.03,0.06
14.676,0.01,0.05,0.03,0.06
14.687,0.01,0.05,-0.00,0.05
14.696,0.03,0.04,0.01,0.05
14.706,-0.00,0.03,0.04,0.05
14.716,-0.02,-0.00,0.04,0.05
14.726,-0.02,0.01,0.03,0.04
14.736,0.01,0.02,0.00,0.02
14.746,0.02,0.02,-0.02,0.03
14.756,-0.01,-0.02,0.02,0.03
14.766,-0.00,0.00,0.03,0.03
14.776,0.01,0.02,-0.00,0.02
14.786,-0.01,0.01,-0.01,0.01
14.796,-0.04,0.00,0.02,0.04
14.806,-0.04,0.00,0.01,0.04
14.816,-0.02,0.01,0.00,0.03
14.826,-0.02,0.02,-0.02,0.04
14.836,-0.03,0.04,-0.03,0.05
14.846,-0.06,0.02,-0.01,0.06
14.856,-0.05,0.05,0.03,0.07
14.866,-0.02,0.07,0.00,0.08
14.875,0.01,0.06,-0.00,0.06
14.885,-0.02,0.05,0.04,0.06
14.895,-0.01,0.04,0.03,0.05
14.906,-0.01,0.05,0.02,0.06
14.915,-0.01,0.06,-0.00,0.07
14.925,-0.00,0.07,-0.01,0.07
14.935,-0.01,0.06,-0.01,0.06
14.945,-0.03,0.03,0.01,0.04
14.955,-0.01,0.06,-0.00,0.06
14.965,0.01,0.05,-0.02,0.05
14.975,-0.01,0.05,0.01,0.05
14.985,-0.03,0.03,0.01,0.04
14.995,-0.02,0.04,0.01,0.05
15.005,0.02,0.03,-0.03,0.05
15.015,0.00,0.00,0.02,0.02
15.025,-0.04,0.04,-0.01,0.06
15.035,0.01,0.02,0.04,0.05
15.045,0.01,-0.01,0.00,0.01
15.055,0.03,-0.00,0.00,0.03
15.065,0.03,-0.03,0.04,0.05
15.075,0.03,-0.06,0.03,0.07
15.085,0.02,-0.08,0.03,0.09
15.094,-0.00,-0.09,0.02,0.09
15.105,0.12,-0.07,0.13,0.19
15.114,0.05,-0.07,0.16,0.18
15.124,0.05,-0.04,0.16,0.17
15.134,0.06,-0.01,0.09,0.11
15.144,0.08,-0.01,0.04,0.08
15.154,0.05,0.03,0.01,0.06
15.164,0.05,0.08,-0.04,0.10
15.174,-0.01,0.14,-0.09,0.17
15.184,-0.07,0.16,-0.11,0.20
15.194,-0.12,0.17,-0.08,0.22
15.204,-0.16,0.13,-0.04,0.21
15.214,-0.15,0.11,0.01,0.19
15.224,-0.09,0.10,0.01,0.13
15.234,-0.04,0.09,-0.01,0.10
15.244,-0.06,0.04,0.03,0.08
15.254,-0.04,0.02,0.03,0.05
15.264,-0.01,0.02,-0.00,0.02
15.273,0.02,-0.02,-0.03,0.04
15.284,0.03,-0.04,0.01,0.05
15.293,0.04,-0.06,0.05,0.08
15.303,0.02,-0.06,0.05,0.08
15.313,0.05,-0.05,0.04,0.08
15.323,0.10,-0.02,0.01,0.11
15.333,0.07,-0.04,0.03,0.08
15.343,0.08,-0.04,0.03,0.10
15.353,0.08,-0.03,0.02,0.09
15.363,0.07,0.02,0.02,0.08
15.373,0.06,0.00,0.03,0.07
15.383,0.01,0.03,0.05,0.06
15.393,-0.00,0.06,0.02,0.06
15.403,-0.00,0.07,0.01,0.07
15.413,-0.01,0.08,0.00,0.09
15.423,-0.05,0.08,0.03,0.10
15.433,-0.03,0.05,0.04,0.07
15.443,-0.01,0.04,0.04,0.06
15.453,0.02,0.03,0.02,0.04
15.463,0.04,0.02,0.01,0.05
15.472,-0.03,-0.01,0.04,0.05
15.483,-0.01,-0.00,0.06,0.06
15.492,-0.01,0.00,0.02,0.03
15.502,-0.01,0.00,0.01,0.02
15.512,-0.04,0.01,0.03,0.05
15.522,-0.04,0.03,0.01,0.05
15.532,-0.04,0.03,-0.00,0.05
15.542,-0.03,0.02,-0.02,0.04
15.552,-0.01,0.02,-0.01,0.03
15.562,-0.03,0.02,-0.01,0.04
15.572,-0.02,0.04,0.02,0.05
15.582,-0.01,0.04,-0.00,0.04
15.592,0.03,0.08,-0.02,0.09
15.602,-0.02,0.04,0.02,0.05
15.612,-0.00,0.04,0.02,0.04
15.622,-0.00,0.05,0.01,0.05
15.632,0.03,0.05,0.01,0.06
15.642,0.02,0.04,0.03,0.06
15.652,0.01,0.04,0.05,0.06
15.662,0.02,0.03,0.03,0.05
15.671,0.02,0.02,-0.00,0.03
15.682,0.04,0.04,0.01,0.06
15.691,-0.01,0.03,0.01,0.03
15.702,-0.01,0.01,0.01,0.02
15.711,0.01,0.03,-0.01,0.03
15.721,-0.00,0.04,-0.04,0.06
15.731,-0.02,0.01,-0.01,0.02
15.741,-0.04,-0.01,0.01,0.04
15.751,-0.06,0.02,0.01,0.06
15.761,-0.07,0.04,-0.01,0.08
15.771,-0.03,0.03,-0.01,0.04
15.781,-0.05,0.03,0.03,0.07
15.791,-0.06,0.03,0.04,0.08
15.801,-0.04,0.02,0.02,0.05
15.811,-0.01,0.02,0.02,0.03
15.821,0.01,-0.00,0.01,0.01
15.831,-0.02,-0.03,0.02,0.04
15.841,-0.01,0.00,0.03,0.03
15.851,0.02,0.03,-0.00,0.04
15.861,0.02,0.04,-0.01,0.04
15.871,0.02,0.02,0.02,0.03
15.881,0.01,0.02,0.03,0.04
15.890,0.02,0.03,0.04,0.06
15.901,0.06,0.03,0.04,0.08
15.910,0.05,0.03,0.05,0.08
15.920,0.05,0.01,0.05,0.07
15.930,0.04,0.00,0.04,0.06
15.940,0.07,0.01,0.02,0.07
15.950,0.06,0.01,0.01,0.06
15.960,-0.01,0.01,0.06,0.06
15.970,0.00,0.02,0.07,0.07
15.980,0.00,0.04,0.03,0.05
15.990,0.01,0.04,-0.01,0.04
16.000,0.01,0.03,0.01,0.03
16.010,-0.01,-0.02,0.00,0.02
16.020,-0.03,-0.03,0.02,0.04
16.030,-0.04,-0.01,0.01,0.04
16.040,-0.01,0.03,0.01,0.03
16.050,-0.03,0.05,0.01,0.06
16.060,-0.05,0.05,0.03,0.08
16.069,-0.07,0.06,0.03,0.09
16.080,-0.01,0.05,-0.01,0.05
16.090,-0.02,0.03,-0.01,0.04
16.100,-0.03,-0.00,0.02,0.03
16.109,0.00,0.01,0.02,0.02
16.119,0.01,0.01,-0.03,0.03
16.129,0.03,0.04,-0.04,0.06
16.139,-0.01,0.03,-0.02,0.03
16.149,-0.04,0.02,-0.02,0.05
16.159,-0.04,0.03,-0.02,0.06
16.169,-0.02,0.07,-0.01,0.07
16.179,-0.00,0.06,-0.01,0.06
16.189,-0.01,0.02,0.02,0.03
16.199,-0.01,0.01,0.00,0.02
16.209,0.03,0.04,0.01,0.05
16.219,0.02,0.04,0.01,0.04
16.229,-0.01,0.01,0.04,0.05
16.239,-0.01,0.03,0.05,0.06
16.249,0.00,0.05,0.03,0.06
16.259,0.01,0.03,0.02,0.04
16.269,0.02,0.02,0.03,0.04
16.279,-0.04,-0.01,0.05,0.06
16.288,-0.04,-0.01,0.05,0.06
16.298,-0.02,0.01,0.04,0.04
16.308,0.02,0.02,-0.00,0.03
16.318,0.02,0.00,0.02,0.03
16.328,0.01,-0.02,0.04,0.05
16.338,0.00,-0.01,0.02,0.02
16.348,0.01,0.00,-0.01,0.02
16.358,0.02,0.00,0.01,0.02
16.368,-0.00,-0.01,0.03,0.03
16.378,0.02,0.02,0.03,0.04
16.388,0.03,0.04,-0.00,0.05
16.398,0.03,0.05,-0.01,0.06
16.408,0.03,0.04,-0.01,0.05
16.418,-0.01,0.04,0.02,0.05
16.428,-0.02,0.06,0.02,0.06
16.438,0.03,0.07,-0.01,0.08
16.448,0.02,0.08,0.00,0.09
16.458,-0.02,0.04,0.03,0.06
16.467,-0.01,0.02,0.01,0.02
16.478,-0.02,0.01,-0.01,0.02
16.487,-0.03,0.03,0.00,0.04
16.497,-0.05,0.04,-0.00,0.06
16.507,-0.05,0.05,0.01,0.07
16.517,-0.05,0.06,0.03,0.08
16.527,-0.03,0.05,0.00,0.06
16.537,-0.01,0.01,-0.01,0.02
16.547,-0.04,-0.03,0.03,0.06
16.557,-0.02,-0.04,0.05,0.07
16.567,0.00,-0.01,-0.00,0.01
16.577,0.03,0.02,-0.01,0.04
16.587,-0.01,0.02,0.00,0.02
16.597,-0.04,0.01,0.02,0.05
16.607,-0.06,0.04,0.02,0.07
16.617,-0.00,0.05,0.01,0.05
16.627,0.04,0.01,0.03,0.05
16.637,0.01,0.02,0.01,0.03
16.647,0.02,0.01,-0.02,0.03
16.657,0.02,0.03,-0.03,0.04
16.667,0.03,0.03,-0.02,0.05
16.677,0.01,0.02,0.03,0.04
16.686,-0.01,0.03,0.06,0.07
16.696,0.02,0.06,0.04,0.07
16.706,0.04,0.08,-0.01,0.09
16.716,0.03,0.05,-0.01,0.06
16.726,-0.00,0.02,0.00,0.02
16.736,-0.00,0.03,0.01,0.03
16.746,-0.01,0.03,-0.01,0.04
16.756,0.00,0.02,-0.01,0.03
16.766,-0.03,0.02,0.04,0.05
16.776,-0.04,0.02,0.03,0.06
16.786,-0.02,0.03,0.02,0.04
16.796,-0.01,0.05,-0.00,0.05
16.806,-0.03,0.04,-0.03,0.06
16.816,-0.04,0.01,0.02,0.05
16.826,-0.00,0.01,0.05,0.05
16.836,0.02,0.03,0.01,0.04
16.846,0.03,0.03,-0.01,0.04
16.856,-0.01,0.01,0.01,0.02
16.866,-0.01,0.02,0.05,0.05
16.876,-0.02,0.03,0.03,0.05
16.885,-0.01,0.03,-0.00,0.03
16.895,-0.00,0.06,-0.00,0.06
16.905,-0.01,0.04,0.01,0.04
16.915,-0.01,0.01,0.03,0.03
16.925,-0.00,0.03,-0.01,0.03
16.935,-0.00,0.05,-0.05,0.07
16.945,-0.02,0.01,0.01,0.03
16.955,-0.00,0.00,0.03,0.03
16.965,0.00,0.04,0.00,0.04
16.975,0.04,0.03,-0.02,0.05
16.985,0.03,0.03,0.03,0.05
16.995,-0.00,0.02,0.04,0.05
17.005,-0.01,0.02,0.01,0.03
17.015,0.01,0.01,0.02,0.02
17.025,0.02,0.01,0.01,0.03
17.035,-0.01,0.01,0.03,0.04
17.045,-0.01,-0.01,0.03,0.04
17.055,0.02,0.01,0.01,0.02
17.064,0.02,0.04,-0.01,0.05
17.075,-0.00,0.02,0.02,0.03
17.084,-0.04,0.02,0.03,0.05
17.095,-0.01,0.05,0.03,0.06
17.104,-0.03,0.05,-0.01,0.06
17.114,-0.01,0.04,-0.02,0.04
17.124,-0.03,0.02,0.01,0.04
17.134,-0.03,0.01,0.02,0.04
17.144,-0.05,0.05,0.02,0.07
17.154,0.00,0.05,-0.00,0.05
17.164,0.00,0.06,0.01,0.07
17.174,-0.04,0.05,0.02,0.06
17.184,-0.02,0.03,0.02,0.04
17.194,-0.00,0.05,-0.01,0.06
17.204,0.02,0.04,-0.03,0.06
17.214,-0.01,0.01,0.02,0.02
17.224,0.00,-0.00,0.01,0.01
17.234,-0.00,0.03,-0.00,0.03
17.244,-0.01,0.04,-0.02,0.05
17.254,-0.00,0.04,-0.02,0.04
17.264,-0.04,0.02,0.02,0.05
17.274,-0.03,0.01,0.04,0.05
17.283,-0.02,0.02,0.02,0.03
17.294,0.01,-0.00,-0.01,0.01
17.303,-0.00,-0.02,0.01,0.03
17.313,-0.00,-0.02,0.02,0.03
17.323,-0.02,0.00,0.01,0.03
17.333,-0.01,-0.00,-0.00,0.01
17.343,-0.02,0.03,0.03,0.05
17.353,-0.04,0.04,0.04,0.07
17.363,-0.02,0.05,0.02,0.06
17.373,-0.01,0.04,0.02,0.04
17.383,0.02,0.05,0.00,0.05
17.393,-0.00,0.04,0.02,0.04
17.403,-0.01,0.03,0.03,0.04
17.413,-0.00,0.03,0.02,0.04
17.423,0.04,0.04,-0.01,0.05
17.433,0.05,0.04,-0.01,0.07
17.443,0.01,0.02,0.00,0.02
17.453,0.00,0.01,0.02,0.02
17.462,0.02,0.04,0.02,0.05
17.473,0.04,0.02,0.01,0.05
17.482,0.01,0.03,0.02,0.04
17.493,0.01,0.01,0.01,0.01
17.502,0.01,0.01,0.01,0.02
17.512,0.01,0.00,0.01,0.02
17.522,0.02,0.01,0.01,0.02
17.532,-0.03,-0.01,0.03,0.05
17.542,-0.03,0.01,0.04,0.05
17.552,0.00,0.04,0.02,0.05
17.562,0.01,0.04,-0.00,0.05
17.572,-0.01,0.01,0.02,0.03
17.582,-0.02,0.00,0.01,0.03
17.592,-0.01,0.03,0.01,0.03
17.602,-0.01,0.02,-0.02,0.03
17.612,-0.01,0.02,0.01,0.02
17.622,-0.03,0.02,0.02,0.04
17.632,-0.03,0.02,0.03,0.05
17.642,-0.01,0.04,0.03,0.05
17.652,0.02,0.05,0.02,0.06
17.662,0.00,0.03,0.02,0.03
17.672,-0.03,0.02,0.03,0.05
17.681,0.00,0.04,0.02,0.05
17.691,0.00,0.03,-0.02,0.04
17.701,0.02,0.02,-0.02,0.03
17.711,-0.00,0.00,-0.00,0.01
17.721,-0.01,0.01,0.01,0.01
17.731,-0.01,0.03,0.00,0.03
17.741,0.02,0.06,0.02,0.07
17.751,0.01,0.03,0.02,0.04
17.761,-0.01,0.00,0.03,0.03
17.771,-0.02,0.03,0.02,0.04
17.781,-0.00,0.04,-0.01,0.04
17.791,-0.01,0.03,-0.01,0.03
17.801,-0.04,-0.01,0.01,0.04
17.811,-0.02,-0.01,0.04,0.04
17.821,0.01,0.04,0.02,0.05
17.831,0.01,0.04,0.00,0.04
17.841,-0.02,0.02,0.03,0.04
17.851,-0.04,0.02,0.03,0.06
17.860,-0.05,0.03,0.03,0.07
17.871,-0.03,0.03,-0.02,0.04
17.880,0.02,0.05,-0.02,0.05
17.890,-0.02,0.02,0.00,0.03
17.900,-0.03,0.00,0.00,0.03
17.910,-0.01,0.02,0.01,0.03
17.920,0.01,0.05,0.01,0.05
17.930,-0.02,0.04,0.03,0.06
17.940,-0.02,0.02,0.03,0.04
17.950,0.01,0.03,0.01,0.03
17.960,-0.01,0.03,-0.03,0.04
17.970,0.02,0.02,-0.04,0.05
17.980,-0.01,0.00,-0.01,0.01
17.990,-0.02,0.01,0.02,0.03
18.000,0.02,0.03,0.04,0.05
18.010,0.05,0.04,0.02,0.06
18.020,0.04,0.02,0.03,0.06
18.030,-0.01,-0.01,0.02,0.02
18.040,0.02,-0.01,0.02,0.03
18.050,0.02,-0.01,-0.01,0.03
18.060,0.02,0.01,0.00,0.02
18.070,-0.02,-0.00,0.05,0.05
18.079,-0.04,0.00,0.03,0.05
18.090,0.00,0.02,0.01,0.02
18.099,-0.00,0.05,-0.02,0.05
18.109,0.01,0.05,-0.00,0.05
18.119,-0.04,0.02,0.03,0.05
18.129,-0.02,0.02,0.02,0.04
18.139,0.00,0.05,0.01,0.05
18.149,0.02,0.05,-0.01,0.05
18.159,-0.01,0.01,0.02,0.03
18.169,-0.03,0.01,0.03,0.04
18.179,-0.02,0.04,0.01,0.04
18.189,-0.01,0.03,0.01,0.03
18.199,-0.01,0.02,0.04,0.04
18.209,0.00,0.02,0.02,0.03
18.219,0.02,0.01,0.00,0.02
18.229,-0.00,0.02,-0.00,0.02
18.239,0.01,0.00,-0.02,0.02
18.249,-0.02,0.00,0.00,0.02
18.259,-0.03,-0.01,0.00,0.03
18.269,-0.00,0.04,0.00,0.04
18.278,0.02,0.06,-0.01,0.06
18.289,0.00,0.04,0.02,0.04
18.298,-0.03,0.01,0.03,0.05
18.308,0.01,0.04,0.04,0.05
18.318,-0.00,0.03,-0.01,0.03
18.328,-0.02,0.02,0.00,0.03
18.338,-0.02,0.01,0.03,0.04
18.348,-0.02,-0.00,0.02,0.03
18.358,-0.01,0.00,0.01,0.01
18.368,0.01,0.04,-0.01,0.04
18.378,0.00,0.03,0.02,0.04
18.388,-0.05,0.03,0.03,0.06
18.398,-0.05,0.04,0.04,0.08
18.408,0.00,0.05,0.01,0.05
18.418,0.01,0.01,-0.01,0.02
18.428,0.00,0.01,0.02,0.02
18.438,0.00,-0.00,0.02,0.02
18.448,-0.00,-0.01,0.00,0.01
18.458,-0.00,0.01,0.01,0.02
18.468,-0.01,0.02,0.03,0.04
18.478,-0.03,0.02,0.04,0.05
18.487,-0.02,0.03,0.01,0.04
18.497,0.00,0.04,-0.02,0.05
18.507,0.00,0.04,-0.02,0.04
18.517,-0.04,0.02,0.00,0.04
18.527,-0.02,-0.00,0.01,0.02
18.537,0.00,0.03,0.02,0.04
18.547,0.02,0.02,0.00,0.03
18.557,-0.02,0.02,0.01,0.03
18.567,-0.04,0.01,0.02,0.05
18.577,-0.04,0.03,0.02,0.06
18.587,-0.02,0.03,-0.01,0.03
18.597,-0.00,0.02,-0.01,0.03
18.607,-0.00,0.02,0.02,0.02
18.617,-0.02,0.02,0.03,0.04
18.627,-0.02,0.02,0.01,0.03
18.637,0.01,0.03,-0.00,0.04
18.647,-0.02,0.02,0.00,0.03
18.657,-0.05,0.01,0.02,0.06
18.667,-0.06,0.06,0.02,0.09
18.676,-0.05,0.09,-0.01,0.10
18.686,-0.03,0.08,-0.01,0.09
18.696,-0.02,0.07,0.02,0.07
18.706,0.01,0.04,0.06,0.07
18.716,0.12,-0.03,0.05,0.13
18.726,0.22,-0.07,-0.05,0.23
18.736,0.25,-0.13,-0.13,0.31
18.746,0.20,-0.16,-0.17,0.31
18.756,0.16,-0.10,-0.12,0.22
18.766,0.16,-0.01,-0.09,0.18
18.776,0.23,0.02,-0.04,0.23
18.786,0.26,-0.09,-0.10,0.29
18.796,0.18,-0.15,-0.19,0.31
18.806,0.15,-0.18,-0.16,0.28
18.816,0.10,-0.27,-0.13,0.31
18.826,0.06,-0.25,-0.05,0.27
18.836,0.12,-0.23,0.00,0.26
18.846,0.20,-0.22,-0.07,0.30
18.856,0.24,-0.21,-0.09,0.33
18.866,0.24,-0.20,-0.13,0.34
18.876,0.18,-0.21,-0.16,0.32
18.885,0.09,-0.21,-0.14,0.26
18.895,-0.05,-0.24,-0.12,0.27
18.905,-0.07,-0.23,-0.14,0.28
18.915,0.02,-0.26,-0.11,0.28
18.925,0.17,-0.30,0.01,0.34
18.935,0.23,-0.26,0.06,0.36
18.945,0.19,-0.23,0.03,0.30
18.955,0.13,-0.14,-0.02,0.19
18.965,-0.01,-0.04,-0.06,0.07
18.975,-0.04,-0.02,-0.13,0.14
18.985,-0.11,-0.01,-0.21,0.23
18.995,-0.09,-0.04,-0.30,0.32
19.005,-0.01,-0.12,-0.39,0.41
19.015,0.05,-0.16,-0.37,0.41
19.025,0.23,-0.16,-0.31,0.42
19.035,0.40,-0.18,-0.24,0.50
19.045,0.51,-0.21,-0.25,0.60
19.055,0.73,-0.26,-0.26,0.81
19.065,0.93,-0.33,-0.35,1.05
19.074,1.01,-0.40,-0.51,1.21
19.085,0.99,-0.46,-0.79,1.34
19.094,0.83,-0.49,-1.00,1.39
19.104,0.48,-0.57,-0.79,1.08
19.114,0.19,-0.55,-0.52,0.78
19.124,-0.04,-0.37,-0.24,0.45
19.134,-0.15,-0.18,-0.03,0.24
19.144,-0.04,-0.03,-0.32,0.32
19.154,0.01,-0.11,-0.63,0.64
19.164,-0.56,-0.34,0.15,0.67
19.174,-1.04,-0.35,0.75,1.33
19.184,-1.06,-0.21,0.78,1.33
19.194,-0.97,-0.03,0.82,1.27
19.204,-0.82,0.14,1.00,1.30
19.214,-0.60,0.28,1.12,1.30
19.224,-0.52,0.49,0.97,1.21
19.234,-0.66,0.60,0.59,1.08
19.244,-0.88,0.62,0.35,1.13
19.254,-0.95,0.59,0.35,1.17
19.264,-0.93,0.54,0.40,1.14
19.273,-0.88,0.55,0.59,1.20
19.283,-0.78,0.62,0.71,1.23
19.293,-0.53,0.58,0.57,0.97
19.303,-0.48,0.52,0.45,0.84
19.313,-0.63,0.64,0.24,0.93
19.323,-0.73,0.71,0.26,1.05
19.333,-0.68,0.71,0.42,1.07
19.343,-0.55,0.69,0.61,1.07
19.353,-0.35,0.59,0.74,1.01
19.363,-0.22,0.46,0.80,0.95
19.373,-0.27,0.35,0.70,0.83
19.383,-0.36,0.29,0.67,0.81
19.393,-0.38,0.36,0.64,0.83
19.403,-0.28,0.39,0.54,0.72
19.413,-0.18,0.30,0.40,0.54
19.423,-0.15,0.22,0.20,0.33
19.433,-0.26,0.22,-0.04,0.35
19.443,-0.36,0.27,-0.12,0.46
19.453,-0.49,0.36,0.03,0.61
19.463,-0.51,0.39,0.39,0.75
19.473,-0.44,0.44,0.75,0.97
19.483,-0.30,0.43,0.86,1.01
19.492,-0.09,0.37,0.72,0.82
19.502,-0.08,0.27,0.46,0.54
19.512,-0.15,0.24,0.20,0.35
19.522,0.19,0.19,-0.20,0.33
19.532,0.91,-0.00,-0.84,1.24
19.542,1.90,-0.53,-1.46,2.45
19.552,2.73,-1.55,-1.99,3.72
19.562,3.83,-2.65,-2.33,5.21
19.572,4.16,-3.02,-1.86,5.47
19.582,3.06,-2.23,-0.78,3.86
19.592,1.41,-1.00,0.35,1.76
19.602,0.06,0.00,1.00,1.01
19.612,-0.58,0.57,1.17,1.42
19.622,-0.92,0.90,1.19,1.75
19.632,-1.04,1.17,1.29,2.03
19.642,-1.28,1.30,1.55,2.40
19.652,-1.69,1.33,1.67,2.72
19.662,-1.67,1.27,1.48,2.57
19.671,-1.63,1.01,0.83,2.09
19.681,-1.19,0.65,-0.00,1.36
19.691,-0.58,0.23,-0.80,1.01
19.701,-0.14,-0.11,-1.37,1.39
19.711,0.23,-0.42,-1.68,1.74
19.721,0.41,-0.69,-1.63,1.82
19.731,0.41,-0.85,-1.31,1.61
19.741,0.21,-0.79,-0.74,1.10
19.751,-0.01,-0.45,-0.13,0.47
19.761,-0.18,0.19,0.33,0.42
19.771,-0.37,0.68,0.52,0.93
19.781,-0.50,0.85,0.53,1.12
19.791,-0.34,0.73,0.49,0.94
19.801,-0.12,0.45,0.43,0.63
19.811,0.09,0.14,0.33,0.37
19.821,0.22,-0.21,0.23,0.38
19.831,0.29,-0.57,0.05,0.65
19.841,0.37,-0.84,-0.16,0.93
19.851,0.45,-0.87,-0.34,1.03
19.861,0.32,-0.65,-0.48,0.87
19.871,0.10,-0.45,-0.52,0.69
19.881,-0.05,-0.26,-0.54,0.60
19.890,-0.13,-0.07,-0.56,0.58
19.900,-0.27,0.04,-0.51,0.58
19.910,-0.35,0.09,-0.36,0.51
19.920,-0.38,0.11,-0.11,0.41
19.930,-0.37,0.07,0.10,0.39
19.940,-0.32,-0.06,0.20,0.38
19.950,-0.24,-0.18,0.15,0.33
19.960,-0.15,-0.28,-0.02,0.32
19.970,-0.08,-0.25,-0.19,0.32
19.980,-0.08,-0.18,-0.30,0.35
19.990,-0.09,-0.12,-0.36,0.39
20.000,-0.16,-0.02,-0.32,0.36
20.010,-0.20,0.08,-0.20,0.29
20.020,-0.20,0.19,-0.05,0.28
20.030,-0.22,0.28,0.08,0.36
20.040,-0.20,0.30,0.18,0.41
20.050,-0.16,0.33,0.26,0.44
20.060,-0.12,0.29,0.30,0.43
20.069,-0.05,0.21,0.23,0.32
20.080,0.01,0.08,0.11,0.14
20.089,0.06,-0.00,0.00,0.06
20.099,0.10,-0.04,-0.06,0.12
20.109,0.11,-0.02,-0.15,0.18
20.119,0.12,-0.02,-0.20,0.23
20.129,0.12,-0.01,-0.16,0.20
20.139,0.12,0.04,-0.10,0.16
20.149,0.11,0.06,-0.01,0.13
20.159,0.12,0.08,0.06,0.15
20.169,0.10,0.04,0.12,0.16
20.179,0.10,0.01,0.16,0.19
20.189,0.11,-0.01,0.19,0.22
20.199,0.10,-0.01,0.18,0.21
20.209,0.10,-0.01,0.18,0.20
20.219,0.09,-0.02,0.17,0.19
20.229,0.08,-0.03,0.18,0.20
20.239,0.08,-0.01,0.16,0.18
20.249,0.08,-0.02,0.11,0.14
20.259,0.05,-0.07,0.11,0.14
20.268,0.06,-0.09,0.12,0.16
20.279,0.09,-0.07,0.10,0.16
20.289,0.11,-0.03,0.08,0.14
20.299,0.09,-0.01,0.04,0.10
20.308,0.08,0.01,0.03,0.09
20.318,0.05,0.03,0.05,0.08
20.328,0.06,0.04,0.05,0.09
20.338,0.06,0.05,0.00,0.08
20.348,-0.00,0.04,-0.03,0.05
20.358,-0.01,0.02,-0.06,0.06
20.368,-0.04,0.01,-0.07,0.08
20.378,-0.03,0.02,-0.11,0.11
20.388,-0.06,0.03,-0.13,0.14
20.398,-0.10,-0.00,-0.11,0.15
20.408,-0.11,0.03,-0.09,0.14
20.418,-0.12,0.05,-0.07,0.15
20.428,-0.11,0.08,-0.09,0.17
20.438,-0.11,0.07,-0.08,0.15
20.448,-0.09,0.06,-0.04,0.12
20.458,-0.09,0.05,-0.00,0.10
20.467,-0.07,0.06,0.01,0.09
20.478,-0.07,0.07,-0.00,0.10
20.487,-0.07,0.04,-0.00,0.08
20.497,-0.08,0.07,0.03,0.11
20.507,-0.08,0.09,0.06,0.14
20.517,-0.08,0.10,0.02,0.13
20.527,-0.12,0.07,-0.00,0.14
20.537,-0.09,0.07,-0.01,0.11
20.547,-0.07,0.06,-0.01,0.09
20.557,-0.03,0.03,-0.04,0.06
20.567,0.01,0.02,-0.05,0.05
20.577,0.04,-0.02,-0.03,0.05
20.587,0.04,-0.04,-0.01,0.06
20.597,0.06,-0.03,0.02,0.07
20.607,0.06,-0.02,0.01,0.07
20.617,0.04,-0.04,0.06,0.09
20.627,0.05,-0.01,0.09,0.10
20.637,0.02,0.03,0.08,0.09
20.647,0.04,0.04,0.04,0.07
20.657,0.06,0.01,0.02,0.06
20.666,0.04,-0.02,0.01,0.05
20.676,0.08,-0.02,0.02,0.08
20.686,0.07,-0.01,0.06,0.09
20.696,0.08,-0.00,0.04,0.09
20.706,0.07,0.02,0.03,0.08
20.716,0.06,0.03,0.02,0.07
20.726,0.06,0.03,0.06,0.09
20.736,0.07,0.04,0.06,0.10
20.746,0.04,0.04,0.05,0.08
20.756,0.01,0.05,0.04,0.06
20.766,0.00,0.05,0.06,0.08
20.776,0.00,0.09,0.06,0.11
20.786,-0.01,0.09,0.04,0.10
20.796,-0.03,0.08,0.06,0.11
20.806,-0.01,0.06,0.10,0.11
20.816,-0.01,0.06,0.11,0.13
20.826,0.03,0.04,0.06,0.08
20.836,0.03,0.01,0.01,0.03
20.846,0.02,-0.01,0.01,0.02
20.856,0.02,-0.03,0.03,0.05
20.865,0.02,0.01,0.03,0.04
20.876,0.01,0.01,0.03,0.03
20.885,-0.02,-0.01,0.02,0.03
20.896,-0.01,0.00,-0.00,0.01
20.905,-0.02,0.02,0.02,0.03
20.915,-0.01,0.02,-0.00,0.02
20.925,-0.05,0.03,-0.01,0.06
20.935,-0.04,0.03,0.00,0.06
20.945,-0.02,0.01,0.01,0.03
20.955,-0.01,0.04,0.01,0.04
20.965,-0.00,0.06,-0.02,0.07
20.975,-0.04,0.05,-0.03,0.07
20.985,-0.04,0.04,-0.01,0.06
20.995,-0.06,0.05,0.07,0.11
21.005,-0.05,0.07,0.06,0.11
21.015,-0.05,0.06,0.05,0.09
21.025,-0.03,0.06,0.03,0.08
21.035,-0.02,0.06,0.02,0.07
21.045,0.02,0.04,-0.03,0.05
21.055,0.02,0.03,-0.06,0.07
21.065,-0.00,0.01,-0.05,0.05
21.075,-0.01,-0.01,0.01,0.01
21.084,-0.02,0.01,0.02,0.03
21.094,0.02,0.06,0.00,0.06
21.104,-0.00,0.05,0.00,0.05
21.114,0.01,0.03,0.02,0.03
21.124,-0.00,0.02,0.04,0.05
21.134,0.02,0.03,0.04,0.06
21.144,0.02,0.02,-0.00,0.03
21.154,0.02,-0.00,0.00,0.02
21.164,0.02,0.01,0.02,0.03
21.174,-0.01,0.00,0.03,0.03
21.184,0.00,0.01,0.02,0.02
21.194,-0.02,0.00,-0.00,0.02
21.204,-0.02,-0.02,0.02,0.03
21.214,-0.01,-0.00,0.03,0.03
21.224,0.01,0.02,0.04,0.05
21.234,0.02,0.04,0.02,0.05
21.244,-0.02,0.02,0.03,0.04
21.254,-0.02,0.01,0.03,0.04
21.263,-0.02,0.03,0.05,0.06
21.274,-0.00,0.05,0.03,0.06
21.284,-0.01,0.05,0.02,0.05
21.293,0.02,0.03,0.01,0.03
21.303,0.02,0.04,0.04,0.06
21.313,0.03,0.05,0.03,0.06
21.323,0.02,0.06,-0.02,0.07
21.333,-0.01,0.03,0.00,0.03
21.343,-0.02,0.03,0.03,0.04
21.353,-0.01,0.05,0.04,0.07
21.363,0.01,0.08,0.01,0.08
21.373,-0.00,0.03,-0.03,0.05
21.383,0.00,-0.00,-0.01,0.01
21.393,0.01,0.02,0.04,0.05
21.403,0.00,0.04,0.02,0.04
21.413,0.00,0.06,-0.02,0.06
21.423,-0.01,0.03,-0.01,0.03
21.433,-0.01,0.01,-0.01,0.02
21.443,-0.02,0.01,0.02,0.03
21.453,-0.01,0.03,0.05,0.06
21.462,-0.03,-0.00,0.02,0.03
21.473,-0.04,-0.03,0.00,0.05
21.482,-0.03,0.01,0.01,0.04
21.492,-0.01,0.00,0.00,0.01
21.502,-0.02,0.01,-0.04,0.04
21.512,-0.03,-0.01,-0.02,0.04
21.522,-0.01,-0.01,-0.01,0.02
21.532,-0.01,0.01,0.03,0.03
21.542,0.00,0.04,0.02,0.05
21.552,-0.01,0.05,0.02,0.06
21.562,-0.01,0.02,0.01,0.03
21.572,-0.00,0.01,0.04,0.04
21.582,0.04,0.02,0.04,0.06
21.592,0.03,0.01,0.02,0.04
21.602,0.01,-0.01,-0.00,0.02
21.612,0.00,0.03,0.00,0.03
21.622,-0.00,0.06,0.02,0.06
21.632,-0.01,0.06,0.01,0.07
21.642,-0.03,0.05,0.01,0.06
21.652,-0.01,0.05,0.03,0.06
21.661,-0.00,0.04,0.04,0.06
21.672,-0.00,0.05,0.03,0.06
21.681,0.02,0.08,-0.01,0.08
21.692,-0.00,0.04,-0.01,0.04
21.701,-0.01,0.02,0.02,0.03
21.711,-0.02,0.05,0.04,0.06
21.721,0.01,0.06,0.00,0.06
21.731,-0.02,0.00,-0.02,0.02
21.741,-0.02,-0.02,-0.02,0.03
21.751,0.00,0.01,0.02,0.03
21.761,0.01,0.01,0.01,0.01
21.771,0.00,-0.00,-0.01,0.01
21.781,-0.01,-0.02,-0.00,0.02
21.791,0.00,-0.01,0.00,0.01
21.801,-0.02,0.02,0.02,0.04
21.811,0.01,0.05,0.00,0.05
21.821,-0.01,0.02,0.02,0.03
21.831,-0.02,-0.01,0.03,0.03
21.842,-0.03,-0.00,0.04,0.05
21.851,-0.01,0.03,0.04,0.05
21.860,-0.02,0.03,-0.00,0.03
21.871,-0.02,-0.01,-0.01,0.02
21.880,0.00,0.01,0.02,0.02
21.890,-0.00,0.06,0.04,0.07
21.900,0.00,0.07,0.01,0.07
21.910,-0.01,0.07,0.01,0.07
21.920,-0.01,0.06,0.03,0.06
21.930,0.00,0.03,0.05,0.06
21.940,0.03,0.06,0.07,0.10
21.950,0.02,0.08,0.02,0.09
21.960,-0.01,0.03,-0.03,0.04
21.970,-0.00,0.00,-0.03,0.03
21.980,-0.00,0.03,0.02,0.03
21.990,0.01,0.03,-0.00,0.03
22.000,-0.01,0.02,-0.00,0.02
22.010,0.00,0.01,-0.00,0.02
22.020,0.01,0.03,0.04,0.05
22.030,0.01,0.04,0.02,0.04
22.040,0.02,0.03,-0.03,0.05
22.050,-0.01,0.01,-0.01,0.02
22.060,-0.01,-0.02,-0.00,0.03
22.070,-0.02,0.01,0.03,0.04
22.079,-0.01,0.06,0.01,0.06
22.090,-0.02,0.02,-0.01,0.03
22.099,-0.02,0.00,-0.04,0.05
22.109,-0.02,0.03,0.02,0.04
22.119,-0.00,0.04,0.05,0.06
22.129,-0.00,0.05,0.03,0.06
22.139,-0.03,0.04,0.02,0.05
22.149,-0.02,0.02,0.01,0.04
22.159,-0.01,0.02,0.03,0.04
22.169,-0.00,0.04,0.01,0.04
22.179,-0.02,0.03,-0.01,0.04
22.189,-0.02,0.02,0.00,0.03
22.199,-0.01,0.01,0.01,0.02
22.209,0.00,0.05,0.03,0.06
22.219,0.00,0.05,-0.01,0.05
22.229,-0.02,0.01,-0.00,0.02
22.239,-0.00,0.01,0.02,0.03
22.249,0.01,0.03,0.05,0.06
22.258,0.02,0.05,0.02,0.06
22.269,0.02,0.05,-0.01,0.06
22.278,0.02,0.02,-0.01,0.03
22.289,0.02,0.01,0.01,0.02
22.298,0.02,0.02,0.02,0.03
22.308,0.03,0.02,0.01,0.04
22.318,0.00,-0.01,-0.02,0.02
22.328,0.01,0.01,-0.00,0.01
22.338,-0.01,0.03,0.02,0.04
22.348,-0.01,0.05,0.01,0.05
22.358,-0.04,0.03,-0.00,0.05
22.368,-0.04,0.01,0.02,0.05
22.378,-0.01,0.03,0.04,0.05
22.388,-0.01,0.04,0.06,0.08
22.398,-0.00,0.06,0.02,0.07
22.408,0.00,0.02,-0.00,0.03
22.418,0.00,0.01,-0.02,0.02
22.428,-0.02,0.01,0.02,0.03
22.438,0.02,0.03,0.01,0.04
22.448,-0.02,0.03,-0.01,0.04
22.458,-0.04,0.00,-0.02,0.04
22.468,-0.02,0.02,0.02,0.04
22.477,-0.02,0.07,0.05,0.09
22.487,-0.02,0.06,0.00,0.06
22.497,-0.03,0.03,0.00,0.04
22.507,-0.02,0.01,-0.00,0.03
22.517,-0.01,-0.01,0.01,0.02
22.527,0.02,0.05,0.02,0.06
22.537,0.02,0.06,0.01,0.07
22.547,0.01,0.03,-0.01,0.03
22.557,0.04,0.01,-0.01,0.04
22.567,0.02,0.03,0.01,0.04
22.577,0.02,0.03,-0.01,0.04
22.587,0.01,-0.00,-0.02,0.02
22.597,-0.00,0.01,0.00,0.01
22.607,0.00,0.03,0.03,0.04
22.617,0.03,0.03,0.00,0.04
22.627,-0.00,0.02,-0.03,0.04
22.637,-0.02,-0.00,-0.01,0.03
22.647,-0.03,0.02,0.04,0.06
22.657,-0.03,0.05,0.07,0.09
22.667,-0.00,0.08,0.06,0.10
22.676,-0.04,0.04,0.03,0.06
22.686,-0.02,0.00,0.03,0.04
22.696,-0.02,0.00,0.05,0.06
22.706,0.00,0.04,0.04,0.06
22.716,-0.01,0.01,0.01,0.02
22.726,0.00,0.02,0.01,0.02
22.736,0.00,0.04,0.03,0.04
22.746,0.03,0.06,-0.00,0.06
22.756,0.02,0.04,-0.02,0.04
22.766,0.00,0.02,-0.02,0.03
22.776,0.01,-0.00,-0.01,0.01
22.786,0.00,0.02,0.03,0.03
22.796,0.03,0.05,0.01,0.06
22.806,0.03,0.03,-0.05,0.06
22.816,0.00,-0.03,-0.05,0.05
22.826,0.00,-0.00,0.01,0.02
22.836,-0.02,0.05,0.03,0.06
22.846,-0.01,0.06,0.02,0.07
22.856,-0.03,0.04,0.02,0.05
22.866,-0.01,0.03,0.02,0.04
22.876,-0.01,0.03,0.05,0.06
22.886,0.01,0.03,0.02,0.04
22.895,0.01,0.03,0.00,0.03
22.906,0.01,-0.01,0.01,0.02
22.915,-0.02,0.01,0.03,0.04
22.925,-0.00,0.07,0.02,0.07
22.935,0.01,0.08,-0.01,0.08
22.945,-0.05,0.02,-0.02,0.06
22.955,-0.03,-0.00,0.01,0.03
22.965,-0.02,0.02,0.03,0.05
22.975,-0.00,0.03,0.02,0.04
22.985,-0.01,0.03,-0.01,0.03
22.995,-0.00,0.01,0.00,0.01
23.005,0.00,0.02,0.01,0.03
23.015,-0.00,0.05,0.04,0.06
23.025,-0.00,0.08,0.02,0.08
23.035,-0.04,0.06,0.00,0.07
23.045,-0.01,0.03,0.01,0.03
23.055,0.02,0.04,0.05,0.06
23.065,0.02,0.06,0.04,0.08
23.075,0.03,0.02,-0.01,0.03
23.085,0.01,-0.03,-0.02,0.04
23.094,0.02,-0.04,-0.03,0.05
23.104,0.02,-0.01,0.02,0.03
23.114,0.01,0.02,-0.01,0.02
23.124,-0.02,0.03,-0.03,0.04
23.134,-0.02,-0.00,0.00,0.02
23.144,-0.01,-0.01,0.03,0.04
23.154,0.02,0.02,0.03,0.04
23.164,0.01,0.01,0.01,0.02
23.174,-0.01,-0.02,-0.02,0.03
23.184,-0.01,0.01,0.03,0.03
23.194,-0.01,0.07,0.06,0.09
23.204,-0.01,0.08,0.02,0.08
23.214,-0.03,0.05,-0.02,0.06
23.224,-0.03,0.05,0.01,0.06
23.234,-0.04,0.04,0.06,0.08
23.244,-0.01,0.05,0.05,0.07
23.254,0.01,0.05,0.02,0.05
23.264,-0.00,0.04,0.00,0.04
23.273,-0.01,0.04,-0.01,0.04
23.284,0.01,0.06,-0.01,0.06
23.293,0.05,0.07,-0.02,0.09
23.303,-0.03,0.03,0.01,0.04
23.313,-0.02,0.04,0.03,0.05
23.323,0.00,0.10,0.04,0.10
23.333,-0.01,0.08,0.01,0.08
23.343,0.02,0.04,-0.02,0.05
23.353,0.01,-0.01,-0.01,0.02
23.363,0.02,-0.02,-0.02,0.03
23.373,-0.00,-0.04,-0.01,0.04
23.383,0.02,-0.00,0.01,0.02
23.393,-0.01,0.03,0.00,0.03
23.403,-0.02,-0.03,-0.01,0.03
23.413,-0.05,-0.02,0.02,0.05
23.423,-0.01,0.01,0.05,0.05
23.433,-0.01,0.01,0.03,0.04
23.443,-0.02,-0.03,0.01,0.04
23.453,-0.02,-0.03,0.02,0.04
23.463,-0.02,-0.00,0.04,0.04
23.472,-0.00,0.02,0.01,0.02
23.483,-0.00,0.02,0.00,0.02
23.492,-0.02,-0.00,0.03,0.04
23.503,-0.03,0.02,0.05,0.06
23.512,0.02,0.06,0.04,0.07
23.522,0.06,0.08,-0.02,0.09
23.532,0.03,0.02,-0.01,0.04
23.542,0.05,-0.02,-0.01,0.05
23.552,0.03,0.02,0.02,0.04
23.562,0.02,0.06,0.00,0.06
23.572,-0.01,0.06,-0.02,0.07
23.582,-0.03,0.05,-0.02,0.06
23.592,-0.01,0.05,-0.01,0.05
23.602,0.00,0.06,-0.01,0.06
23.612,-0.03,0.04,0.00,0.05
23.622,-0.03,0.01,-0.00,0.04
23.632,-0.04,0.01,0.04,0.05
23.643,-0.02,0.04,0.03,0.05
23.652,-0.01,0.06,0.03,0.07
23.662,0.00,0.05,0.00,0.05
23.672,-0.04,0.03,0.03,0.05
23.682,-0.05,0.04,0.05,0.07
23.691,-0.01,0.06,0.05,0.07
23.701,-0.02,0.04,0.01,0.05
23.711,-0.02,0.03,-0.01,0.04
23.721,0.01,0.00,0.01,0.01
23.731,0.01,0.00,0.02,0.03
23.741,-0.01,0.00,0.02,0.02
23.751,-0.02,0.00,-0.02,0.02
23.761,-0.03,-0.00,-0.00,0.03
23.771,-0.02,0.02,0.01,0.03
23.781,-0.02,0.05,0.01,0.05
23.791,0.01,0.04,-0.01,0.04
23.801,0.03,0.03,0.00,0.04
23.811,0.05,0.02,0.03,0.06
23.821,0.04,0.02,0.06,0.07
23.831,0.06,0.06,0.04,0.09
23.841,0.06,0.06,0.00,0.08
23.851,0.06,0.04,-0.01,0.07
23.861,0.05,0.03,0.01,0.06
23.870,0.05,0.04,0.02,0.07
23.881,0.03,0.04,-0.01,0.05
23.890,-0.01,-0.02,-0.03,0.04
23.900,0.00,-0.05,-0.02,0.06
23.910,-0.01,-0.02,0.01,0.03
23.920,-0.01,-0.01,0.02,0.02
23.930,-0.05,-0.01,0.00,0.05
23.940,-0.08,-0.02,0.01,0.09
23.950,-0.10,0.01,0.05,0.11
23.960,-0.10,0.04,0.05,0.12
23.970,-0.08,0.07,0.04,0.12
23.980,-0.09,0.07,0.04,0.12
23.990,-0.08,0.05,0.02,0.09
24.000,-0.05,0.05,0.02,0.08
24.010,-0.00,0.08,-0.00,0.08
24.020,-0.01,0.06,-0.01,0.06
24.030,-0.01,0.02,-0.01,0.03
24.040,0.00,0.06,-0.00,0.06
24.050,0.02,0.08,0.01,0.09
24.060,0.04,0.06,-0.03,0.08
24.069,0.04,0.01,-0.06,0.07
24.080,0.05,0.01,-0.03,0.06
24.089,0.04,0.01,0.02,0.05
24.099,0.06,0.03,0.02,0.07
24.109,0.04,0.03,0.00,0.05
24.119,0.00,0.02,-0.00,0.02
24.129,0.00,0.00,0.05,0.05
24.139,-0.00,0.00,0.08,0.08
24.149,0.00,0.03,0.06,0.07
24.159,-0.03,-0.01,0.05,0.06
24.169,-0.03,-0.04,0.03,0.06
24.179,-0.02,0.00,0.06,0.06
24.189,-0.01,0.03,0.04,0.05
24.199,-0.04,0.04,0.02,0.06
24.209,-0.04,0.01,0.04,0.06
24.219,-0.04,0.03,0.07,0.09
24.229,-0.04,0.07,0.07,0.11
24.239,0.00,0.07,0.01,0.07
24.249,-0.01,0.02,-0.03,0.04
24.259,0.01,0.00,-0.01,0.01
24.269,0.01,0.01,0.02,0.03
24.279,0.01,0.03,-0.01,0.03
24.288,-0.00,0.02,-0.04,0.04
24.298,-0.01,0.02,-0.05,0.05
24.308,-0.01,0.04,0.01,0.04
24.318,0.00,0.05,0.04,0.06
24.328,0.00,0.06,0.00,0.06
24.338,0.01,0.03,0.00,0.03
24.348,0.03,-0.00,0.00,0.03
24.358,0.02,0.02,0.01,0.03
24.368,0.04,0.06,-0.02,0.08
24.378,0.02,0.06,-0.04,0.08
24.388,-0.01,0.03,-0.03,0.04
24.398,-0.00,0.06,-0.00,0.06
24.408,-0.02,0.09,0.03,0.10
24.418,-0.03,0.08,0.02,0.09
24.428,-0.06,0.06,0.00,0.08
24.438,-0.05,0.05,0.02,0.07
24.448,-0.03,0.03,0.04,0.06
24.458,-0.00,0.03,0.03,0.04
24.467,-0.01,0.02,-0.01,0.03
24.477,-0.03,-0.02,-0.01,0.04
24.487,-0.03,-0.01,0.00,0.03
24.497,-0.03,0.01,0.04,0.05
24.507,0.00,0.04,0.04,0.05
24.518,-0.02,-0.01,0.01,0.02
24.527,-0.00,-0.04,0.04,0.05
24.537,-0.00,-0.01,0.06,0.06
24.547,0.02,-0.00,0.03,0.04
24.557,0.05,-0.01,-0.01,0.05
24.567,0.02,-0.00,0.00,0.02
24.577,0.03,0.02,0.01,0.04
24.587,0.02,0.03,0.03,0.05
24.597,0.04,0.06,-0.01,0.07
24.607,-0.02,0.05,-0.00,0.05
24.617,-0.02,0.05,0.02,0.05
24.627,0.00,0.05,0.04,0.07
24.637,0.04,0.10,0.04,0.11
24.647,0.04,0.07,-0.01,0.08
24.657,0.01,0.03,-0.02,0.03
24.667,0.03,0.04,0.01,0.05
24.677,0.01,0.04,0.02,0.05
24.686,0.02,0.05,-0.01,0.05
24.697,0.01,0.04,0.00,0.04
24.706,-0.02,0.02,0.03,0.05
24.717,-0.04,0.02,0.03,0.05
24.726,-0.02,0.03,0.03,0.04
24.736,-0.02,0.03,0.00,0.03
24.746,-0.04,0.01,0.01,0.04
24.756,-0.02,0.01,0.03,0.04
24.766,-0.01,0.05,0.04,0.06
24.776,-0.02,0.06,0.01,0.06
24.786,-0.04,0.02,-0.02,0.05
24.796,-0.03,0.01,-0.01,0.03
24.806,-0.04,0.01,0.03,0.05
24.816,-0.03,0.03,0.02,0.05
24.826,-0.02,0.04,-0.03,0.05
24.836,-0.02,0.01,-0.05,0.05
24.846,-0.01,0.00,-0.02,0.02
24.856,-0.02,0.02,0.02,0.03
24.866,0.00,0.06,-0.00,0.06
24.876,-0.02,0.03,0.00,0.04
24.885,-0.02,0.01,0.01,0.02
24.895,-0.01,0.02,0.03,0.04
24.905,0.01,0.05,0.03,0.06
24.915,0.03,0.03,-0.03,0.05
24.925,-0.00,0.00,-0.01,0.01
24.935,0.03,0.01,-0.00,0.03
24.945,0.01,0.02,0.03,0.04
24.955,0.03,0.06,-0.00,0.07
24.965,0.01,0.05,0.00,0.05
24.975,-0.01,0.03,0.01,0.04
24.985,0.01,0.04,0.06,0.07
24.995,0.02,0.07,0.06,0.10
25.005,-0.00,0.05,0.03,0.06
25.015,0.01,0.02,0.01,0.03
25.025,0.01,0.04,0.02,0.04
25.035,0.02,0.03,0.05,0.06
25.045,0.01,0.05,0.01,0.06
25.055,-0.00,0.03,-0.00,0.03
25.064,-0.00,0.02,0.02,0.02
25.075,-0.02,0.02,0.03,0.04
25.084,-0.00,0.06,0.02,0.06
25.094,0.01,0.05,-0.00,0.05
25.104,-0.02,-0.01,-0.01,0.03
25.114,-0.00,-0.01,-0.00,0.01
25.124,-0.01,0.01,0.02,0.03
25.134,-0.00,0.04,-0.03,0.05
25.144,-0.04,0.02,-0.04,0.06
25.154,-0.04,0.01,-0.02,0.05
25.164,-0.03,0.02,0.01,0.04
25.174,-0.02,0.03,0.02,0.04
25.184,-0.01,0.05,-0.00,0.05
25.194,-0.03,0.02,-0.02,0.04
25.204,-0.02,-0.00,-0.01,0.02
25.214,-0.01,0.02,0.04,0.05
25.224,0.01,0.05,0.01,0.06
25.234,-0.01,0.04,-0.02,0.05
25.244,-0.02,0.01,0.00,0.02
25.254,-0.01,0.05,0.03,0.06
25.263,-0.01,0.06,0.03,0.07
25.274,-0.01,0.06,-0.01,0.06
25.283,-0.01,0.02,0.00,0.03
25.294,-0.01,0.02,0.03,0.04
25.303,0.01,0.05,0.04,0.07
25.313,0.04,0.06,0.01,0.07
25.323,0.02,0.05,-0.01,0.05
25.333,-0.01,0.01,-0.01,0.01
25.344,0.01,0.02,0.02,0.03
25.353,0.02,0.06,0.05,0.08
25.363,0.02,0.06,-0.00,0.06
25.373,-0.00,-0.00,-0.04,0.04
25.383,0.01,-0.00,-0.00,0.01
25.393,-0.02,0.01,0.03,0.03
25.403,0.02,0.01,0.02,0.03
25.413,-0.01,0.03,0.02,0.04
25.423,-0.02,0.02,0.01,0.03
25.433,-0.01,0.03,0.02,0.03
25.443,-0.01,0.03,0.03,0.05
25.453,0.00,0.04,0.01,0.05
25.462,-0.01,0.01,0.01,0.02
25.473,-0.01,-0.00,0.04,0.04
25.482,0.02,0.02,0.06,0.06
25.493,0.04,0.04,-0.00,0.06
25.502,0.00,0.01,-0.05,0.05
25.512,-0.02,-0.01,-0.01,0.03
25.522,-0.03,0.02,0.02,0.04
25.532,-0.05,0.06,0.04,0.09
25.542,-0.02,0.08,0.01,0.08
25.552,-0.02,0.06,-0.01,0.06
25.562,-0.03,0.04,0.01,0.05
25.572,-0.00,0.03,0.02,0.03
25.582,0.02,0.06,-0.00,0.06
25.592,0.00,0.02,-0.01,0.02
25.602,-0.03,0.02,-0.01,0.04
25.612,-0.01,0.04,0.03,0.05
25.622,-0.03,0.08,0.02,0.09
25.632,-0.02,0.08,-0.01,0.08
25.642,-0.04,0.02,0.00,0.05
25.652,-0.02,0.00,0.03,0.03
25.662,-0.00,0.01,0.06,0.06
25.672,0.01,0.04,0.02,0.05
25.681,0.02,0.04,-0.02,0.05
25.691,0.01,-0.02,-0.02,0.04
25.701,-0.01,-0.03,0.00,0.03
25.711,-0.01,0.04,0.05,0.06
25.721,-0.00,0.08,0.02,0.08
25.731,-0.03,0.02,0.01,0.03
25.741,-0.01,0.02,0.02,0.03
25.751,0.02,0.03,0.04,0.06
25.761,0.04,0.02,0.01,0.05
25.771,0.02,-0.00,-0.01,0.02
25.781,0.00,-0.02,0.01,0.02
25.791,0.00,0.01,0.02,0.02
25.801,-0.00,0.05,0.03,0.06
25.811,-0.02,0.07,0.01,0.07
25.821,-0.02,0.05,0.00,0.05
25.831,-0.02,0.02,0.03,0.04
25.841,-0.03,0.03,0.06,0.08
25.851,-0.02,0.04,0.02,0.05
25.861,0.00,0.01,-0.03,0.03
25.871,-0.01,0.01,-0.02,0.02
25.881,-0.01,0.04,0.00,0.04
25.891,-0.00,0.06,0.01,0.06
25.900,-0.00,0.05,-0.01,0.05
25.910,-0.04,0.03,0.00,0.05
25.920,-0.04,0.03,0.00,0.05
25.930,-0.03,0.03,0.04,0.06
25.940,-0.01,0.07,0.02,0.07
25.950,0.01,0.02,-0.02,0.03
25.960,-0.01,-0.02,-0.03,0.04
25.970,-0.01,0.00,0.01,0.01
25.980,-0.00,0.04,-0.01,0.05
25.990,0.02,0.05,-0.02,0.05
26.000,-0.03,0.03,-0.01,0.04
26.010,-0.01,0.03,0.02,0.03
26.020,-0.01,0.04,0.04,0.06
26.030,-0.01,0.04,0.02,0.04
26.040,0.00,0.02,-0.00,0.02
26.050,-0.00,-0.02,0.00,0.02
26.060,-0.01,-0.00,0.02,0.02
26.070,-0.00,0.03,0.05,0.06
26.079,-0.01,0.06,0.01,0.06
26.090,-0.03,0.03,0.01,0.04
26.099,-0.03,0.02,0.03,0.05
26.109,-0.01,0.06,0.07,0.09
26.119,0.00,0.08,0.04,0.09
26.129,0.01,0.05,0.00,0.05
26.139,0.03,0.02,-0.00,0.03
26.149,0.06,0.02,0.02,0.06
26.159,0.08,0.04,0.01,0.09
26.169,0.06,0.05,-0.03,0.08
26.180,0.03,-0.00,-0.03,0.04
26.189,0.00,0.00,0.03,0.03
26.199,-0.02,0.05,0.06,0.09
26.209,-0.01,0.05,0.03,0.06
26.219,-0.01,0.03,-0.02,0.04
26.229,-0.02,-0.00,-0.03,0.04
26.239,-0.04,-0.02,0.03,0.05
26.249,-0.04,0.03,0.06,0.08
26.258,-0.05,0.06,0.02,0.08
26.269,-0.03,0.06,0.00,0.07
26.278,-0.05,0.04,0.02,0.06
26.288,-0.04,0.01,0.03,0.06
26.298,-0.03,0.03,0.01,0.04
26.308,-0.02,0.02,-0.01,0.03
26.318,-0.01,-0.01,0.00,0.02
26.328,-0.01,0.02,0.01,0.02
26.338,0.01,0.07,-0.00,0.07
26.348,0.01,0.06,-0.03,0.07
26.358,0.00,0.03,-0.04,0.05
26.368,0.01,0.06,0.00,0.06
26.378,-0.02,0.07,0.05,0.09
26.388,0.01,0.08,0.03,0.08
26.398,-0.00,0.08,0.01,0.08
26.408,-0.02,0.03,-0.01,0.03
26.418,0.00,-0.01,-0.01,0.02
26.428,0.04,0.01,0.02,0.04
26.438,0.03,0.01,-0.00,0.03
26.448,-0.02,-0.02,-0.02,0.03
26.458,-0.02,-0.00,0.01,0.02
26.468,-0.04,0.03,0.06,0.08
26.477,-0.06,0.04,0.04,0.08
26.488,-0.03,-0.00,0.02,0.04
26.497,-0.02,-0.02,0.05,0.05
26.507,-0.05,-0.01,0.08,0.10
26.517,-0.02,0.01,0.05,0.06
26.527,-0.01,0.06,0.03,0.07
26.537,-0.03,0.05,0.03,0.06
26.547,-0.01,0.03,0.01,0.03
26.557,0.01,0.07,0.05,0.09
26.567,0.07,0.11,0.01,0.13
26.577,0.04,0.08,-0.02,0.09
26.587,0.06,0.03,-0.01,0.07
26.597,0.08,0.05,0.01,0.10
26.607,0.06,0.06,0.04,0.09
26.617,0.08,0.06,-0.03,0.10
26.627,0.03,0.03,-0.05,0.07
26.637,0.04,0.02,-0.05,0.07
26.647,-0.01,0.02,-0.01,0.02
26.657,0.01,0.06,0.02,0.07
26.667,-0.00,0.10,0.01,0.10
26.677,-0.06,0.05,-0.01,0.07
26.687,-0.06,0.02,0.03,0.07
26.696,-0.06,0.02,0.07,0.10
26.706,-0.04,0.02,0.04,0.06
26.717,-0.06,-0.01,0.04,0.07
26.726,-0.04,-0.01,0.05,0.06
26.736,-0.06,0.01,0.05,0.08
26.746,-0.08,0.06,0.05,0.11
26.756,-0.04,0.09,-0.00,0.09
26.766,-0.09,0.05,-0.01,0.10
26.776,-0.04,-0.02,-0.03,0.05
26.786,-0.02,0.02,0.01,0.03
26.796,0.03,0.05,-0.02,0.06
26.806,0.04,0.01,-0.08,0.09
26.816,0.05,-0.03,-0.05,0.08
26.826,-0.00,-0.03,-0.06,0.07
26.836,-0.02,-0.04,0.01,0.04
26.846,0.04,0.05,0.02,0.07
26.856,0.00,0.05,0.03,0.06
26.866,-0.00,-0.01,-0.00,0.01
26.876,0.02,0.00,0.02,0.03
26.886,-0.00,0.05,0.06,0.08
26.895,0.04,0.08,0.03,0.09
26.905,0.03,0.04,0.07,0.09
26.915,0.03,0.05,0.05,0.07
26.925,0.01,0.06,0.07,0.09
26.935,0.04,0.11,0.05,0.12
26.945,0.03,0.12,-0.01,0.12
26.955,0.02,0.02,0.00,0.03
26.965,0.05,0.04,0.03,0.07
26.975,0.02,0.04,0.05,0.07
26.985,0.03,0.07,0.01,0.08
26.995,-0.02,0.04,0.01,0.04
27.005,-0.00,0.02,-0.00,0.02
27.015,-0.03,0.03,0.02,0.05
27.025,-0.01,0.04,0.03,0.05
27.035,0.00,0.02,0.01,0.02
27.045,-0.01,-0.03,-0.00,0.03
27.055,-0.01,0.00,0.00,0.01
27.065,-0.00,0.02,0.01,0.02
27.074,-0.01,0.02,-0.04,0.04
27.085,-0.04,-0.01,-0.02,0.04
27.094,-0.02,0.02,0.03,0.04
27.105,-0.02,0.06,0.02,0.07
27.114,-0.05,0.07,0.01,0.08
27.124,-0.03,0.04,0.00,0.05
27.134,-0.02,0.06,0.02,0.07
27.144,-0.01,0.07,0.02,0.07
27.154,-0.00,0.05,0.00,0.05
27.164,-0.01,0.01,-0.04,0.05
27.174,-0.01,0.01,-0.04,0.04
27.184,0.00,0.07,-0.00,0.07
27.194,-0.00,0.06,0.01,0.06
27.204,-0.04,0.04,0.01,0.05
27.214,-0.04,0.01,0.02,0.04
27.224,-0.04,0.02,0.06,0.08
27.234,-0.03,0.05,0.04,0.07
27.244,-0.02,0.01,0.02,0.03
27.254,-0.01,-0.01,0.03,0.03
27.264,0.00,0.04,0.06,0.07
27.273,0.01,0.07,0.02,0.07
27.284,-0.01,0.02,-0.00,0.02
27.293,0.01,0.02,0.03,0.03
27.303,0.03,0.07,0.07,0.10
27.313,-0.01,0.09,0.04,0.09
27.323,0.01,0.05,0.01,0.05
27.333,0.03,0.04,0.01,0.05
27.343,0.04,0.07,0.02,0.09
27.353,0.01,0.03,0.01,0.04
27.363,-0.00,-0.01,-0.01,0.01
27.373,0.03,0.02,0.02,0.04
27.383,0.03,0.06,0.02,0.07
27.393,0.00,0.03,0.00,0.03
27.403,0.02,0.00,-0.03,0.04
27.413,0.03,0.03,-0.00,0.05
27.423,0.00,0.06,0.00,0.06
27.433,-0.05,0.02,-0.03,0.06
27.443,-0.03,-0.01,0.00,0.03
27.453,-0.00,0.05,0.03,0.06
27.463,-0.02,0.07,0.01,0.07
27.472,-0.07,-0.00,-0.02,0.07
27.482,-0.03,-0.01,0.03,0.04
27.492,-0.02,0.06,0.05,0.08
27.502,-0.08,0.04,-0.01,0.09
27.512,-0.08,0.00,-0.02,0.08
27.522,0.01,0.08,0.05,0.09
27.532,-0.01,0.12,0.02,0.12
27.542,-0.06,0.04,-0.01,0.07
27.552,0.01,0.04,0.01,0.04
27.562,0.07,0.12,0.08,0.15
27.572,-0.03,0.06,0.05,0.09
27.582,-0.02,-0.04,0.02,0.05
27.592,0.09,0.06,0.04,0.11
27.602,0.06,0.11,0.03,0.13
27.612,0.02,-0.03,-0.02,0.04
27.622,0.04,-0.07,0.00,0.08
27.632,0.08,0.09,0.06,0.14
27.642,0.03,0.08,0.02,0.09
27.652,0.02,-0.05,-0.03,0.07
27.662,0.12,0.02,0.03,0.12
27.671,0.08,0.10,0.04,0.14
27.682,0.00,-0.04,-0.02,0.05
27.691,0.04,-0.05,0.03,0.07
27.701,0.05,0.09,0.12,0.16
27.711,-0.08,0.05,0.05,0.11
27.721,-0.05,-0.00,0.00,0.05
27.731,0.01,0.13,0.08,0.15
27.741,-0.06,0.15,0.06,0.17
27.751,-0.12,0.01,-0.02,0.12
27.761,-0.07,0.04,-0.04,0.09
27.771,-0.06,0.14,-0.02,0.16
27.781,-0.12,0.03,-0.06,0.14
27.791,-0.08,-0.04,-0.10,0.13
27.801,0.00,0.03,-0.05,0.06
27.811,0.01,0.02,-0.04,0.04
27.821,-0.03,-0.09,-0.05,0.11
27.831,0.02,-0.04,-0.01,0.05
27.841,0.06,0.07,0.07,0.12
27.851,0.03,0.02,0.07,0.08
27.861,-0.01,-0.01,0.05,0.05
27.870,0.03,0.04,0.10,0.11
27.881,0.07,0.10,0.09,0.15
27.890,-0.00,0.08,-0.01,0.08
27.900,-0.02,-0.01,-0.04,0.04
27.910,0.04,0.04,0.00,0.06
27.920,0.00,0.13,0.02,0.13
27.930,-0.02,0.09,-0.04,0.10
27.940,-0.04,0.05,-0.02,0.06
27.950,-0.03,0.06,0.09,0.12
27.960,0.02,0.08,0.06,0.10
27.970,0.00,0.04,-0.02,0.04
27.980,-0.02,-0.07,0.03,0.08
27.990,0.06,-0.04,0.06,0.10
28.000,0.09,0.06,0.01,0.11
28.010,-0.01,0.01,-0.00,0.01
28.020,0.02,-0.06,0.04,0.07
28.030,0.06,0.05,0.08,0.11
28.040,0.05,0.14,0.08,0.17
28.050,-0.01,0.07,0.00,0.07
28.060,0.02,0.02,-0.00,0.03
28.069,0.01,0.06,-0.01,0.06
28.080,-0.01,0.07,-0.05,0.09
28.089,-0.05,0.03,-0.07,0.09
28.099,-0.07,-0.02,-0.04,0.08
28.109,-0.04,0.02,-0.02,0.05
28.119,-0.02,0.06,-0.07,0.09
28.129,-0.04,0.04,-0.07,0.09
28.139,-0.07,-0.01,-0.02,0.07
28.149,-0.03,0.02,0.04,0.05
28.159,0.00,0.08,0.05,0.10
28.169,-0.03,0.05,0.04,0.07
28.179,-0.03,-0.04,0.05,0.07
28.189,0.01,-0.02,0.07,0.07
28.199,0.02,0.10,0.07,0.12
28.209,-0.04,0.05,0.04,0.08
28.219,-0.06,0.01,0.07,0.09
28.229,0.00,0.09,0.08,0.12
28.239,0.01,0.15,0.02,0.15
28.249,-0.00,0.06,-0.06,0.09
28.259,0.02,-0.04,-0.04,0.06
28.269,0.08,0.01,0.01,0.08
28.279,0.05,0.08,-0.04,0.10
28.288,-0.01,0.04,-0.07,0.09
28.298,-0.03,0.00,-0.02,0.04
28.308,-0.04,0.10,0.05,0.12
28.318,-0.04,0.15,0.02,0.15
28.328,-0.06,0.08,-0.03,0.10
28.338,-0.06,-0.01,0.00,0.06
28.348,0.01,0.02,0.03,0.04
28.358,0.02,0.07,0.02,0.08
28.368,-0.01,0.03,0.00,0.03
28.378,0.01,-0.02,0.03,0.04
28.388,0.03,0.03,0.06,0.07
28.398,0.03,0.07,0.03,0.08
28.408,0.00,0.01,-0.00,0.01
28.418,0.00,-0.05,0.05,0.07
28.428,0.06,-0.01,0.11,0.12
28.438,0.05,0.07,0.05,0.10
28.448,-0.01,0.02,-0.03,0.04
28.458,-0.00,-0.04,0.00,0.04
28.467,0.02,0.03,0.03,0.05
28.477,0.06,0.05,-0.00,0.08
28.487,0.02,0.01,-0.08,0.08
28.498,0.04,-0.04,-0.03,0.06
28.507,0.08,0.04,0.05,0.10
28.517,0.05,0.10,0.04,0.12
28.527,-0.03,0.08,0.01,0.09
28.537,-0.05,0.04,0.06,0.09
28.547,-0.02,0.10,0.07,0.13
28.557,0.00,0.17,0.02,0.18
28.567,-0.04,0.08,-0.03,0.10
28.577,-0.01,-0.02,-0.00,0.02
28.587,0.04,0.04,0.05,0.08
28.597,0.03,0.07,-0.01,0.08
28.607,-0.02,0.00,-0.05,0.05
28.617,-0.04,-0.05,0.02,0.07
28.627,0.02,0.05,0.07,0.08
28.637,-0.00,0.10,0.04,0.11
28.647,-0.03,0.03,-0.00,0.04
28.657,-0.01,-0.04,0.01,0.04
28.666,0.04,0.02,0.06,0.07
28.677,0.04,0.06,0.04,0.08
28.686,0.01,0.01,-0.01,0.02
28.697,-0.01,-0.03,0.02,0.04
28.706,0.02,0.03,0.05,0.06
28.716,0.01,0.09,-0.00,0.10
28.726,-0.02,0.03,-0.03,0.05
28.736,-0.05,-0.04,-0.00,0.06
28.746,-0.01,0.03,0.06,0.07
28.756,-0.02,0.11,0.03,0.11
28.766,-0.04,0.06,-0.02,0.08
28.776,-0.05,0.01,0.01,0.05
28.786,-0.04,0.06,0.06,0.10
28.796,-0.01,0.10,0.02,0.10
28.806,-0.04,0.04,-0.03,0.06
28.816,-0.03,-0.01,-0.01,0.03
28.826,0.00,0.05,0.04,0.07
28.836,0.04,0.11,0.02,0.12
28.846,-0.00,0.04,-0.04,0.05
28.856,-0.00,-0.04,-0.04,0.05
28.866,0.02,0.01,0.04,0.04
28.876,0.03,0.08,0.02,0.09
28.885,0.00,0.04,-0.02,0.05
28.895,-0.02,-0.02,0.02,0.04
28.905,0.01,0.04,0.06,0.07
28.915,0.01,0.11,0.03,0.12
28.925,-0.00,0.08,-0.03,0.08
28.935,-0.04,-0.01,0.00,0.04
28.945,-0.01,0.03,0.04,0.05
28.955,-0.00,0.11,0.02,0.11
28.965,-0.00,0.09,-0.03,0.10
28.975,-0.02,0.01,-0.02,0.03
28.985,0.00,0.01,0.05,0.05
28.995,0.00,0.08,0.05,0.09
29.005,-0.01,0.06,0.02,0.06
29.015,-0.02,-0.02,0.04,0.05
29.025,0.01,0.00,0.07,0.07
29.035,0.05,0.08,0.03,0.10
29.044,0.02,0.07,-0.02,0.08
29.055,-0.02,-0.02,0.01,0.03
29.064,0.00,-0.01,0.07,0.07
29.074,0.03,0.05,0.03,0.06
29.084,0.02,0.07,-0.03,0.08
29.094,-0.04,0.01,-0.02,0.05
29.104,-0.01,0.02,0.04,0.05
29.114,-0.00,0.07,0.03,0.08
29.124,-0.00,0.08,-0.03,0.09
29.134,-0.06,0.01,-0.02,0.06
29.144,-0.03,0.02,0.01,0.03
29.154,0.00,0.10,0.03,0.11
29.164,-0.01,0.10,-0.02,0.11
29.174,-0.04,0.02,-0.00,0.04
29.184,0.00,0.02,0.04,0.04
29.194,0.02,0.07,0.04,0.09
29.204,0.01,0.07,-0.01,0.07
29.214,-0.02,-0.02,0.01,0.03
29.224,0.02,0.00,0.04,0.05
29.234,0.01,0.09,0.05,0.11
29.244,0.01,0.09,-0.02,0.10
29.254,-0.03,-0.01,0.01,0.04
29.263,0.00,-0.01,0.04,0.04
29.274,0.01,0.08,0.04,0.09
29.283,0.00,0.09,-0.02,0.09
29.293,-0.02,-0.00,-0.03,0.04
29.303,0.03,-0.01,0.00,0.03
29.313,0.02,0.05,0.04,0.07
29.323,0.02,0.07,-0.01,0.07
29.333,-0.01,-0.03,-0.00,0.03
29.343,0.01,-0.03,0.03,0.05
29.353,0.02,0.06,0.06,0.09
29.363,0.03,0.10,0.02,0.10
29.373,-0.03,0.01,0.03,0.04
29.383,-0.01,-0.01,0.05,0.05
29.393,0.03,0.05,0.09,0.11
29.403,0.04,0.11,0.03,0.12
29.413,-0.00,0.03,0.02,0.03
29.423,-0.00,0.02,0.03,0.04
29.433,0.00,0.07,0.06,0.09
29.443,0.03,0.11,0.01,0.12
29.453,-0.02,0.01,-0.03,0.03
29.462,-0.01,-0.03,-0.01,0.03
29.473,0.01,0.05,0.04,0.06
29.483,0.01,0.11,0.01,0.11
29.493,-0.05,0.02,-0.01,0.06
29.502,-0.03,-0.01,0.00,0.03
29.513,-0.03,0.05,0.03,0.06
29.522,-0.02,0.11,-0.00,0.11
29.532,-0.05,0.02,-0.02,0.06
29.542,-0.04,-0.02,0.01,0.05
29.552,-0.02,0.06,0.05,0.08
29.562,0.01,0.14,-0.01,0.14
29.572,-0.02,0.05,-0.04,0.07
29.582,-0.02,-0.03,0.00,0.04
29.592,-0.01,0.03,0.04,0.06
29.602,0.04,0.10,0.02,0.10
29.612,-0.01,0.04,-0.00,0.04
29.622,0.01,0.00,0.01,0.01
29.632,0.01,0.05,0.04,0.07
29.642,0.00,0.11,0.03,0.12
29.652,-0.00,0.06,-0.00,0.06
29.661,-0.01,-0.03,0.02,0.04
29.672,0.02,0.02,0.04,0.05
29.682,0.03,0.08,0.02,0.09
29.691,0.01,0.06,-0.03,0.06
29.701,-0.02,-0.00,-0.01,0.03
29.711,0.01,0.01,0.05,0.05
29.721,-0.01,0.09,0.05,0.10
29.731,-0.01,0.08,-0.00,0.08
29.741,-0.02,0.00,0.00,0.02
29.751,0.01,0.03,0.05,0.06
29.761,0.01,0.09,0.06,0.11
29.771,0.00,0.08,-0.00,0.08
29.781,-0.03,-0.01,-0.01,0.03
29.791,-0.01,0.01,0.01,0.02
29.801,0.01,0.08,0.04,0.08
29.811,0.03,0.08,-0.01,0.08
29.821,-0.00,-0.04,-0.02,0.04
29.831,0.05,-0.02,0.05,0.07
29.841,0.06,0.06,0.08,0.12
29.851,0.02,0.08,0.02,0.08
29.860,-0.01,-0.01,0.01,0.01
29.871,0.02,0.01,0.07,0.07
29.880,0.04,0.09,0.06,0.11
29.890,0.04,0.11,-0.01,0.12
29.900,-0.03,0.04,-0.03,0.05
29.910,-0.01,0.02,0.01,0.02
29.920,-0.01,0.09,0.02,0.09
29.930,-0.02,0.14,-0.04,0.15
29.940,-0.08,0.06,-0.05,0.11
29.950,-0.03,0.03,-0.03,0.05
29.960,-0.02,0.07,0.03,0.08
29.970,-0.01,0.11,-0.02,0.12
29.980,-0.06,0.01,-0.03,0.07
29.990,-0.07,-0.02,0.01,0.07
30.000,-0.05,0.07,0.06,0.10
30.010,-0.04,0.13,0.01,0.13
30.020,-0.06,0.05,-0.01,0.08
30.030,-0.03,0.00,0.01,0.03
30.040,0.00,0.02,0.04,0.04
30.050,0.05,0.05,0.01,0.07
30.059,0.02,-0.02,-0.01,0.03
30.069,0.05,-0.08,0.01,0.09
30.079,0.07,-0.01,0.05,0.08
30.089,0.05,0.04,0.03,0.07
30.099,0.04,-0.01,-0.02,0.04
30.109,0.04,-0.06,-0.02,0.07
30.119,0.03,-0.01,0.04,0.06
30.129,0.04,0.06,0.07,0.10
30.139,0.03,0.07,0.04,0.08
30.149,0.01,0.04,0.04,0.06
30.159,0.03,0.07,0.08,0.11
30.169,0.04,0.13,0.07,0.15
30.179,0.03,0.12,0.03,0.12
30.189,0.03,0.05,0.04,0.07
30.199,0.02,0.06,0.09,0.11
30.209,0.05,0.15,0.08,0.18
30.219,-0.01,0.14,0.01,0.14
30.229,-0.02,0.06,-0.01,0.06
30.239,-0.02,0.03,0.04,0.05
30.249,-0.00,0.11,0.05,0.12
30.259,-0.02,0.07,-0.01,0.07
30.269,-0.02,-0.05,-0.04,0.07
30.278,0.01,-0.06,-0.01,0.06
30.289,0.05,0.03,0.01,0.05
30.298,0.02,0.04,-0.03,0.05
30.308,-0.02,-0.06,-0.04,0.08
30.318,-0.02,-0.02,0.02,0.04
30.328,-0.03,0.11,0.05,0.12
30.338,-0.04,0.13,0.00,0.14
30.349,-0.07,0.01,0.00,0.08
30.358,-0.04,0.03,0.01,0.05
30.368,-0.02,0.10,0.03,0.10
30.378,-0.03,0.10,-0.02,0.11
30.388,-0.07,0.01,-0.04,0.08
30.398,-0.02,0.02,-0.03,0.04
30.408,-0.01,0.09,0.02,0.10
30.418,0.00,0.11,-0.02,0.11
30.428,-0.03,0.03,-0.06,0.07
30.438,-0.00,-0.00,-0.01,0.01
30.448,0.02,0.07,0.06,0.09
30.458,0.03,0.12,0.02,0.13
30.468,-0.01,0.04,0.02,0.04
30.477,0.02,-0.01,0.03,0.04
30.488,0.03,0.07,0.05,0.09
30.497,0.04,0.12,0.01,0.12
30.507,0.01,0.01,-0.01,0.02
30.517,0.05,-0.01,0.00,0.05
30.527,0.04,0.05,0.05,0.08
30.537,0.04,0.12,0.01,0.13
30.547,-0.01,0.07,-0.01,0.07
30.557,-0.03,-0.00,0.01,0.03
30.567,-0.01,0.06,0.07,0.09
30.577,0.03,0.12,0.07,0.14
30.587,-0.01,0.04,0.03,0.05
30.597,0.01,-0.05,0.02,0.05
30.607,0.02,0.01,0.07,0.07
30.617,0.02,0.12,0.06,0.14
30.627,-0.02,0.07,0.01,0.07
30.637,-0.04,0.01,0.01,0.04
30.647,-0.03,0.06,0.04,0.08
30.657,-0.00,0.12,0.03,0.12
30.667,-0.00,0.08,-0.01,0.08
30.677,-0.02,-0.04,-0.03,0.05
30.687,-0.00,-0.02,-0.00,0.02
30.697,0.01,0.05,-0.01,0.05
30.706,0.00,0.03,-0.07,0.08
30.716,-0.02,-0.02,-0.04,0.05
30.726,-0.01,0.04,0.03,0.05
30.736,-0.00,0.12,0.05,0.13
30.746,-0.00,0.09,-0.03,0.09
30.756,-0.01,0.00,-0.03,0.03
30.766,0.01,0.03,0.03,0.04
30.776,0.01,0.08,0.10,0.13
30.786,0.00,0.09,0.04,0.10
30.796,-0.00,0.05,0.01,0.05
30.806,0.02,0.06,0.01,0.06
30.816,0.01,0.09,-0.00,0.09
30.826,-0.00,0.10,-0.05,0.11
30.836,-0.05,0.03,-0.04,0.06
30.846,-0.04,0.03,0.03,0.06
30.855,-0.04,0.12,0.09,0.15
30.866,0.01,0.14,0.04,0.15
30.875,-0.02,0.06,0.01,0.06
30.885,0.03,0.04,0.02,0.05
30.895,0.04,0.06,0.06,0.10
30.906,0.08,0.07,0.02,0.11
30.915,0.05,-0.03,0.00,0.05
30.925,0.06,-0.03,0.03,0.07
30.935,0.07,-0.00,0.07,0.10
30.945,0.08,0.03,0.01,0.09
30.955,0.01,-0.03,0.02,0.04
30.965,0.01,-0.06,0.03,0.07
30.975,-0.01,0.01,0.06,0.06
30.985,0.03,0.09,0.02,0.09
30.995,-0.01,0.04,-0.01,0.04
31.005,-0.01,-0.02,0.03,0.03
31.015,-0.01,0.03,0.06,0.07
31.025,0.01,0.11,0.02,0.11
31.035,-0.03,0.07,-0.01,0.08
31.045,-0.04,0.01,0.03,0.05
31.055,-0.00,0.07,0.07,0.10
31.065,0.01,0.12,0.02,0.12
31.074,-0.03,0.12,-0.02,0.13
31.084,-0.03,0.03,-0.02,0.04
31.094,-0.01,0.05,0.02,0.05
31.104,0.01,0.12,0.03,0.13
31.114,0.00,0.11,0.01,0.11
31.124,-0.03,0.03,0.01,0.05
31.134,-0.01,0.04,0.05,0.06
31.144,-0.01,0.11,0.03,0.11
31.154,-0.01,0.08,-0.03,0.09
31.164,-0.04,-0.01,-0.01,0.05
31.174,0.01,0.01,0.03,0.03
31.184,0.01,0.07,0.00,0.07
31.194,0.02,0.08,-0.05,0.09
31.204,-0.02,0.00,-0.02,0.03
31.214,-0.00,-0.01,0.04,0.04
31.224,0.02,0.06,0.04,0.07
31.234,0.01,0.07,0.01,0.08
31.244,-0.04,0.01,0.02,0.04
31.254,0.01,0.01,0.04,0.04
31.264,0.02,0.09,0.03,0.09
31.273,-0.01,0.09,-0.02,0.09
31.283,-0.04,0.03,0.00,0.05
31.294,-0.00,0.01,0.02,0.03
31.303,-0.01,0.05,0.03,0.05
31.313,0.00,0.09,0.01,0.09
31.323,-0.02,0.06,0.02,0.07
31.333,-0.04,-0.00,0.05,0.07
31.343,-0.00,0.04,0.05,0.07
31.353,0.01,0.11,0.02,0.11
31.363,-0.03,0.04,0.00,0.06
31.373,-0.03,-0.03,0.03,0.05
31.383,0.03,0.04,0.04,0.06
31.393,0.05,0.11,-0.01,0.12
31.403,0.01,0.04,-0.03,0.05
31.413,0.00,-0.02,0.00,0.02
31.423,0.02,0.03,0.05,0.06
31.433,0.06,0.11,0.04,0.13
31.443,0.01,0.07,0.03,0.07
31.453,-0.01,-0.01,0.05,0.05
31.463,0.02,0.07,0.04,0.08
31.472,0.03,0.11,0.01,0.11
31.482,0.01,0.06,-0.01,0.06
31.492,-0.01,-0.00,0.03,0.03
31.502,0.02,0.04,0.05,0.07
31.512,0.01,0.09,0.02,0.09
31.522,0.03,0.07,-0.05,0.09
31.532,0.01,-0.01,-0.00,0.02
31.542,0.02,-0.01,0.05,0.05
31.552,0.02,0.04,0.02,0.05
31.562,0.01,0.08,0.02,0.08
31.572,-0.02,0.04,0.03,0.05
31.582,-0.02,0.02,0.02,0.04
31.592,0.01,0.10,0.03,0.10
31.602,-0.00,0.18,0.01,0.18
31.612,-0.06,0.09,0.03,0.11
31.622,-0.05,0.03,0.05,0.08
31.632,-0.04,0.10,0.05,0.12
31.642,-0.01,0.15,0.01,0.15
31.652,-0.05,0.06,-0.04,0.08
31.662,-0.06,-0.01,-0.03,0.07
31.672,-0.06,0.02,-0.01,0.07
31.682,-0.05,0.09,-0.03,0.11
31.691,-0.09,0.07,-0.05,0.12
31.701,-0.07,0.02,-0.05,0.09
31.711,-0.04,0.02,-0.01,0.05
31.721,0.00,0.08,0.01,0.08
31.731,-0.03,0.07,-0.01,0.08
31.741,-0.04,-0.04,0.00,0.05
31.751,0.03,-0.07,0.02,0.08
31.761,0.07,-0.02,0.03,0.08
31.771,0.08,-0.01,0.03,0.09
31.781,0.07,-0.07,0.03,0.10
31.791,0.08,-0.08,0.02,0.12
31.801,0.09,-0.02,0.05,0.10
31.811,0.11,0.04,0.06,0.13
31.821,0.06,-0.00,0.13,0.14
31.831,0.06,0.01,0.18,0.19
31.841,0.06,0.08,0.19,0.21
31.851,0.10,0.15,0.10,0.20
31.861,0.04,0.12,0.02,0.13
31.870,-0.03,0.07,-0.00,0.08
31.881,-0.04,0.10,-0.03,0.11
31.890,-0.09,0.19,-0.08,0.23
31.900,-0.13,0.17,-0.08,0.23
31.910,-0.14,0.15,-0.03,0.20
31.920,-0.10,0.19,-0.00,0.22
31.930,-0.05,0.24,0.02,0.25
31.940,-0.03,0.19,0.01,0.20
31.950,-0.03,0.08,0.06,0.10
31.960,0.03,0.11,0.06,0.13
31.970,0.07,0.19,0.05,0.21
31.980,0.06,0.18,0.04,0.20
31.990,0.04,0.11,0.08,0.14
32.000,0.09,0.11,0.11,0.18
32.010,0.11,0.20,0.07,0.24
32.020,0.08,0.24,0.05,0.26
32.030,0.04,0.18,0.09,0.20
32.040,0.07,0.19,0.11,0.23
32.050,0.10,0.27,0.07,0.29
32.060,0.07,0.29,0.00,0.30
32.069,0.03,0.20,0.01,0.20
32.080,0.07,0.16,0.07,0.19
32.089,0.09,0.25,0.08,0.27
32.099,0.04,0.28,0.01,0.28
32.109,-0.00,0.20,0.02,0.20
32.119,0.01,0.15,0.09,0.18
32.129,0.08,0.20,0.11,0.24
32.139,0.08,0.24,0.05,0.26
32.149,0.03,0.16,0.09,0.18
32.159,0.05,0.14,0.16,0.22
32.169,0.06,0.21,0.17,0.28
32.179,0.10,0.24,0.04,0.26
32.189,0.07,0.17,0.03,0.19
32.199,0.06,0.11,0.10,0.16
32.209,0.09,0.14,0.15,0.22
32.219,0.11,0.20,0.07,0.24
32.229,0.04,0.17,0.04,0.18
32.239,0.01,0.12,0.12,0.17
32.249,0.03,0.20,0.14,0.24
32.259,0.02,0.25,0.03,0.25
32.269,-0.03,0.20,-0.05,0.21
32.279,-0.06,0.11,0.00,0.13
32.288,-0.00,0.11,0.05,0.12
32.298,0.01,0.15,-0.02,0.15
32.308,0.00,0.08,-0.11,0.13
32.318,-0.01,-0.08,-0.07,0.10
32.328,0.04,-0.12,-0.00,0.13
32.338,0.09,-0.08,-0.02,0.13
32.348,0.06,-0.11,-0.07,0.14
32.358,0.01,-0.24,-0.06,0.25
32.368,0.02,-0.34,-0.06,0.35
32.378,0.03,-0.37,-0.15,0.41
32.388,-0.01,-0.42,-0.23,0.48
32.398,-0.12,-0.51,-0.21,0.56
32.408,-0.17,-0.58,-0.17,0.63
32.418,-0.23,-0.59,-0.17,0.65
32.428,-0.26,-0.54,-0.21,0.64
32.438,-0.33,-0.55,-0.20,0.68
32.448,-0.33,-0.58,-0.13,0.68
32.458,-0.28,-0.57,-0.14,0.65
32.467,-0.22,-0.45,-0.19,0.54
32.477,-0.25,-0.45,-0.18,0.55
32.487,-0.19,-0.40,-0.11,0.45
32.497,-0.16,-0.25,-0.04,0.30
32.507,-0.16,-0.12,-0.06,0.21
32.517,-0.22,-0.08,0.01,0.24
32.527,-0.23,0.03,0.13,0.26
32.537,-0.20,0.19,0.20,0.34
32.547,-0.20,0.33,0.20,0.44
32.557,-0.18,0.36,0.17,0.43
32.567,-0.09,0.39,0.18,0.44
32.577,-0.00,0.43,0.15,0.45
32.587,0.10,0.51,0.07,0.52
32.597,0.20,0.56,0.01,0.59
32.607,0.28,0.57,-0.00,0.63
32.617,0.34,0.58,0.02,0.68
32.627,0.35,0.56,0.05,0.67
32.637,0.30,0.43,0.06,0.53
32.647,0.26,0.31,0.10,0.41
32.657,0.21,0.28,0.12,0.37
32.667,0.15,0.25,0.05,0.30
32.677,0.08,0.13,0.00,0.16
32.686,0.08,0.03,-0.02,0.09
32.696,0.07,0.01,-0.05,0.09
32.706,0.10,-0.04,-0.13,0.17
32.716,0.06,-0.15,-0.17,0.24
32.726,0.05,-0.25,-0.12,0.28
32.736,0.03,-0.29,-0.05,0.29
32.746,-0.02,-0.26,-0.02,0.26
32.756,-0.07,-0.28,0.02,0.29
32.766,-0.11,-0.25,0.04,0.28
32.776,-0.11,-0.15,0.08,0.20
32.786,-0.06,-0.06,0.06,0.11
32.796,-0.12,-0.10,0.07,0.17
32.806,-0.11,-0.11,0.09,0.18
32.816,-0.06,-0.01,0.15,0.17
32.826,-0.02,0.08,0.12,0.15
32.836,-0.04,0.05,0.08,0.10
32.846,-0.04,0.02,0.07,0.08
32.856,-0.00,0.09,0.10,0.13
32.866,0.02,0.19,0.05,0.19
32.875,-0.04,0.15,-0.00,0.16
32.885,-0.04,0.13,-0.00,0.14
32.895,-0.00,0.21,0.00,0.21
32.905,0.01,0.24,-0.07,0.25
32.915,-0.02,0.13,-0.13,0.19
32.925,-0.00,0.07,-0.09,0.11
32.935,0.05,0.10,-0.02,0.11
32.945,0.08,0.16,-0.06,0.19
32.955,0.03,0.07,-0.09,0.11
32.965,0.05,0.04,-0.07,0.09
32.975,0.05,0.09,-0.02,0.11
32.985,0.11,0.17,-0.05,0.20
32.995,0.06,0.03,-0.06,0.09
33.005,0.05,-0.05,0.01,0.07
33.015,0.05,0.05,0.10,0.12
33.025,0.06,0.12,0.07,0.15
33.035,-0.01,0.02,0.03,0.03
33.045,-0.04,-0.04,0.07,0.09
33.055,-0.02,0.04,0.14,0.15
33.064,-0.03,0.11,0.12,0.17
33.074,-0.06,0.07,0.08,0.12
33.084,-0.06,0.01,0.09,0.11
33.094,-0.03,0.04,0.13,0.14
33.104,-0.00,0.11,0.09,0.14
33.114,-0.04,0.05,-0.00,0.06
33.124,-0.06,-0.03,-0.00,0.07
33.134,-0.04,0.02,0.06,0.07
33.144,-0.01,0.10,-0.01,0.10
33.154,-0.02,0.05,-0.09,0.10
33.164,-0.05,-0.06,-0.09,0.12
33.174,-0.02,-0.05,-0.04,0.07
33.184,0.03,-0.00,-0.04,0.05
33.194,0.02,0.01,-0.09,0.09
33.204,-0.02,-0.08,-0.09,0.12
33.214,0.01,-0.03,-0.02,0.04
33.224,0.04,0.09,0.02,0.10
33.234,0.03,0.13,-0.03,0.14
33.244,-0.03,0.02,-0.01,0.04
33.254,0.02,0.05,0.02,0.06
33.264,0.04,0.14,0.06,0.16
33.274,0.04,0.15,0.03,0.16
33.283,0.02,0.08,0.03,0.09
33.293,0.04,0.10,0.07,0.13
33.303,0.04,0.18,0.11,0.21
33.313,0.04,0.21,0.03,0.22
33.323,0.00,0.12,0.02,0.12
33.333,0.03,0.06,0.08,0.11
33.343,0.03,0.12,0.13,0.18
33.353,0.07,0.14,0.05,0.17
33.363,0.02,0.04,0.02,0.05
33.373,0.04,-0.02,0.05,0.07
33.383,0.05,0.02,0.07,0.09
33.393,0.06,0.05,0.03,0.08
33.403,0.01,-0.00,-0.00,0.01
33.413,-0.02,-0.06,0.02,0.06
33.423,-0.02,0.02,0.04,0.05
33.433,0.01,0.07,0.00,0.07
33.443,-0.03,-0.01,-0.05,0.06
33.453,-0.04,-0.04,-0.03,0.06
33.463,-0.02,-0.00,0.02,0.03
33.472,0.01,0.06,-0.00,0.06
33.482,-0.04,0.03,-0.04,0.07
33.492,-0.06,0.00,0.00,0.06
33.502,-0.05,0.04,0.04,0.08
33.512,-0.04,0.11,0.03,0.12
33.522,-0.03,0.10,-0.00,0.10
33.532,-0.03,0.03,-0.01,0.05
33.542,-0.01,0.05,0.03,0.06
33.552,0.03,0.14,0.01,0.14
33.562,0.01,0.13,-0.03,0.13
33.572,-0.03,0.04,-0.01,0.06
33.582,-0.02,0.04,0.03,0.05
33.592,0.00,0.11,0.03,0.11
33.602,0.02,0.12,-0.01,0.12
33.612,-0.02,0.03,0.01,0.04
33.622,-0.01,0.03,0.04,0.05
33.632,0.00,0.11,0.05,0.12
33.641,0.01,0.12,0.00,0.12
33.652,-0.03,0.05,-0.03,0.06
33.661,-0.02,0.04,0.04,0.06
33.672,0.02,0.09,0.08,0.12
33.681,0.04,0.11,0.03,0.12
33.691,0.00,0.04,0.01,0.04
33.701,-0.00,-0.01,0.03,0.04
33.711,-0.00,0.04,0.06,0.07
33.721,0.01,0.10,0.05,0.11
33.731,-0.02,0.08,0.02,0.08
33.741,-0.02,0.01,0.02,0.04
33.751,-0.01,0.05,0.05,0.07
33.761,0.02,0.09,0.02,0.10
33.771,0.03,0.06,-0.02,0.06
33.781,0.01,-0.03,-0.00,0.03
33.791,-0.01,-0.03,0.02,0.04
33.801,0.02,0.05,0.01,0.06
33.811,-0.00,0.05,-0.04,0.07
33.821,-0.04,-0.00,-0.03,0.04
33.831,-0.06,0.00,0.02,0.06
33.840,-0.03,0.08,0.03,0.09
33.851,-0.02,0.11,-0.02,0.11
33.860,-0.05,0.05,-0.01,0.07
33.871,-0.02,0.04,0.02,0.05
33.880,-0.00,0.10,0.04,0.10
33.891,0.03,0.11,-0.00,0.11
33.900,-0.00,0.06,-0.00,0.06
33.910,-0.00,0.03,0.02,0.04
33.920,0.00,0.06,0.06,0.08
33.930,0.03,0.11,0.03,0.12
33.940,0.02,0.06,0.01,0.06
33.950,-0.01,0.04,0.03,0.05
33.960,0.01,0.06,0.07,0.09
33.970,0.04,0.11,0.01,0.12
33.980,0.02,0.07,-0.02,0.07
33.990,-0.02,0.01,0.00,0.03
34.000,-0.02,0.04,0.04,0.06
34.010,0.02,0.10,0.03,0.11
34.020,0.01,0.11,0.01,0.11
34.030,-0.01,0.04,-0.01,0.04
34.040,0.01,0.01,0.03,0.03
34.050,0.04,0.07,0.04,0.09
34.059,0.02,0.07,0.01,0.08
34.070,0.02,0.02,0.01,0.02
34.079,0.02,-0.00,0.03,0.03
34.089,0.05,0.04,0.03,0.07
34.099,0.03,0.05,0.00,0.06
34.109,-0.00,0.01,0.00,0.01
34.119,-0.01,-0.02,0.04,0.05
34.129,0.01,0.06,0.06,0.09
34.139,0.02,0.12,0.02,0.13
34.149,-0.04,0.06,-0.00,0.07
34.159,-0.06,0.03,0.01,0.07
34.169,-0.04,0.07,0.05,0.10
34.179,-0.01,0.11,0.02,0.11
34.189,-0.02,0.09,-0.03,0.10
34.199,-0.04,0.04,-0.03,0.06
34.209,-0.02,0.07,0.01,0.07
34.219,0.01,0.12,0.01,0.12
34.229,0.01,0.08,-0.02,0.08
34.239,-0.01,0.02,-0.01,0.02
34.249,0.01,0.03,0.03,0.04
34.258,0.02,0.09,0.04,0.10
34.269,0.02,0.10,0.01,0.10
34.278,0.01,0.03,-0.01,0.03
34.288,0.00,-0.00,0.03,0.03
34.298,0.03,0.07,0.05,0.09
34.308,0.05,0.08,0.02,0.10
34.318,-0.01,0.02,0.02,0.03
34.328,0.01,-0.00,0.06,0.06
34.338,0.02,0.08,0.08,0.12
34.348,0.01,0.11,0.02,0.11
34.358,-0.02,0.04,-0.02,0.04
34.368,-0.02,0.00,-0.01,0.02
34.378,-0.04,0.05,0.06,0.08
34.388,0.00,0.12,0.04,0.13
34.398,-0.03,0.09,-0.01,0.10
34.408,-0.06,0.02,-0.00,0.06
34.418,-0.04,0.03,-0.01,0.05
34.428,-0.02,0.09,-0.01,0.09
34.438,-0.01,0.07,-0.04,0.08
34.448,-0.03,-0.03,-0.05,0.06
34.458,-0.01,-0.02,0.01,0.03
34.468,0.04,0.03,0.02,0.06
34.477,0.05,0.04,-0.02,0.06
34.488,0.02,-0.04,-0.01,0.05
34.497,0.02,-0.04,0.07,0.08
34.508,0.05,0.06,0.12,0.15
34.518,0.07,0.11,0.13,0.19
34.527,0.06,0.09,0.10,0.15
34.537,0.06,0.04,0.05,0.09
34.547,0.03,0.09,0.04,0.11
34.557,0.03,0.15,-0.02,0.15
34.567,-0.07,0.16,-0.08,0.19
34.577,-0.13,0.09,-0.11,0.19
34.587,-0.10,0.11,-0.05,0.16
34.597,-0.05,0.15,-0.03,0.16
34.607,-0.05,0.12,-0.03,0.13
34.617,-0.06,0.03,0.01,0.06
34.627,-0.02,0.04,0.07,0.09
34.637,0.03,0.09,0.12,0.15
34.647,0.05,0.09,0.07,0.12
34.657,0.04,0.01,0.03,0.05
34.667,0.05,-0.04,0.05,0.08
34.676,0.07,-0.01,0.05,0.09
34.686,0.08,0.02,0.01,0.09
34.696,0.03,-0.06,-0.04,0.08
34.706,0.00,-0.10,-0.04,0.11
34.716,0.04,-0.03,0.01,0.05
34.726,0.05,0.08,0.03,0.10
34.736,-0.01,0.06,-0.02,0.07
34.746,-0.03,0.04,-0.01,0.05
34.756,0.03,0.09,0.08,0.13
34.766,0.05,0.16,0.15,0.22
34.776,0.01,0.14,0.09,0.17
34.786,-0.03,0.08,0.03,0.09
34.796,-0.02,0.08,-0.01,0.09
34.806,0.00,0.09,-0.01,0.09
34.816,0.02,0.09,-0.04,0.10
34.826,-0.04,0.05,-0.10,0.12
34.835,-0.06,0.02,-0.05,0.08
34.846,0.00,0.05,0.03,0.06
34.856,0.04,0.11,0.07,0.14
34.866,0.04,0.09,0.09,0.14
34.875,0.03,0.04,0.10,0.11
34.886,0.02,0.05,0.09,0.11
34.895,0.04,0.10,0.03,0.11
34.905,0.00,0.06,-0.02,0.06
34.915,-0.02,0.01,-0.01,0.03
34.925,-0.02,0.04,-0.01,0.05
34.935,0.01,0.09,-0.02,0.10
34.945,-0.02,0.08,-0.05,0.10
34.955,-0.05,0.01,-0.05,0.07
34.965,-0.06,0.03,0.02,0.07
34.975,-0.02,0.10,0.03,0.11
34.985,0.02,0.10,0.01,0.10
34.995,-0.01,0.03,-0.00,0.03
35.005,-0.01,0.01,0.02,0.03
35.015,0.01,0.06,0.05,0.08
35.025,0.03,0.09,0.02,0.10
35.035,-0.02,0.04,-0.01,0.05
35.045,-0.02,-0.03,-0.01,0.03
35.054,0.01,0.04,0.04,0.06
35.065,0.04,0.12,0.01,0.13
35.074,-0.00,0.05,-0.02,0.06
35.084,-0.01,-0.01,-0.02,0.02
35.094,0.00,0.04,0.02,0.04
35.104,-0.00,0.10,0.01,0.10
35.114,0.00,0.09,-0.00,0.09
35.124,-0.02,0.03,0.00,0.03
35.134,0.01,0.02,0.03,0.04
35.144,0.03,0.09,0.04,0.10
35.154,0.02,0.09,0.02,0.09
35.164,0.01,0.03,-0.01,0.03
35.174,-0.03,0.03,0.03,0.05
35.184,-0.01,0.10,0.04,0.11
35.194,0.02,0.12,-0.00,0.13
35.204,-0.00,0.05,-0.03,0.06
35.214,-0.01,-0.01,0.01,0.01
35.224,-0.00,0.05,0.05,0.07
35.234,0.02,0.12,0.05,0.13
35.244,0.01,0.08,0.03,0.09
35.254,-0.02,0.01,0.03,0.04
35.264,-0.00,0.03,0.05,0.06
35.274,0.03,0.10,0.05,0.12
35.283,0.04,0.09,0.02,0.10
35.293,0.00,0.01,-0.00,0.01
35.303,-0.01,0.01,0.03,0.03
35.313,0.02,0.10,0.04,0.11
35.323,0.02,0.12,0.01,0.12
35.333,-0.01,0.04,-0.02,0.04
35.343,-0.01,-0.01,0.04,0.04
35.353,0.04,0.04,0.06,0.08
35.363,0.06,0.08,0.02,0.10
35.373,0.02,0.02,-0.04,0.05
35.383,0.01,0.00,-0.03,0.04
35.393,-0.01,0.02,0.02,0.03
35.403,-0.01,0.10,0.02,0.10
35.413,-0.04,0.09,-0.01,0.10
35.423,-0.06,0.03,-0.02,0.07
35.433,-0.05,0.03,0.04,0.08
35.443,0.01,0.13,0.03,0.13
35.452,0.01,0.13,0.00,0.13
35.463,-0.02,0.05,-0.00,0.05
35.472,-0.04,0.03,0.01,0.05
35.482,-0.00,0.08,0.05,0.09
35.492,0.01,0.12,0.00,0.12
35.502,-0.02,0.05,-0.01,0.06
35.512,-0.02,0.03,0.02,0.04
35.522,-0.01,0.08,0.07,0.10
35.532,0.03,0.12,0.03,0.12
35.542,0.00,0.06,-0.04,0.07
35.552,-0.00,-0.00,-0.01,0.01
35.562,-0.00,0.03,0.05,0.06
35.572,0.03,0.09,0.05,0.11
35.582,0.02,0.09,0.01,0.10
35.592,-0.01,0.04,-0.01,0.04
35.602,-0.01,0.03,0.02,0.04
35.612,0.03,0.08,0.07,0.11
35.622,0.02,0.08,0.02,0.08
35.632,-0.00,-0.00,-0.00,0.00
35.642,0.00,0.01,0.02,0.03
35.652,0.02,0.08,0.04,0.09
35.662,0.04,0.10,0.02,0.11
35.671,-0.02,0.05,-0.01,0.05
35.681,-0.01,0.01,0.02,0.03
35.691,-0.02,0.05,0.07,0.09
35.701,0.00,0.10,0.04,0.11
35.711,0.01,0.07,-0.02,0.07
35.721,-0.01,0.00,-0.05,0.05
35.731,0.01,0.03,0.01,0.04
35.741,0.03,0.10,0.03,0.11
35.751,-0.01,0.09,-0.01,0.09
35.761,-0.05,0.01,-0.01,0.05
35.771,-0.01,0.02,0.02,0.03
35.781,0.02,0.10,0.04,0.11
35.791,0.03,0.10,0.01,0.10
35.801,-0.01,0.04,-0.01,0.04
35.811,-0.03,0.01,0.01,0.03
35.821,-0.02,0.06,0.04,0.07
35.831,0.01,0.12,-0.00,0.12
35.841,0.02,0.06,-0.03,0.07
35.850,-0.01,0.01,-0.01,0.01
35.861,0.00,0.04,0.04,0.05
35.870,0.03,0.11,0.03,0.12
35.881,0.00,0.08,-0.01,0.08
35.890,-0.04,0.03,0.00,0.05
35.900,-0.03,0.04,0.05,0.07
35.910,0.02,0.12,0.06,0.14
35.920,0.02,0.12,0.00,0.12
35.930,-0.03,0.02,-0.03,0.05
35.940,-0.01,-0.00,0.00,0.01
35.950,0.01,0.06,0.03,0.07
35.960,0.02,0.10,0.02,0.10
35.970,-0.01,0.04,-0.01,0.04
35.980,-0.01,0.02,0.00,0.02
35.990,0.00,0.05,0.03,0.06
36.000,0.03,0.10,0.01,0.11
36.010,-0.00,0.07,-0.01,0.07
36.020,-0.04,-0.00,0.02,0.04
36.030,-0.05,0.03,0.07,0.09
36.040,0.03,0.11,0.05,0.13
36.050,0.01,0.09,-0.02,0.09
36.060,-0.03,-0.01,-0.05,0.06
36.069,-0.01,-0.01,0.01,0.02
36.080,0.02,0.07,0.06,0.09
36.089,0.00,0.11,0.02,0.12
36.099,-0.02,0.06,-0.01,0.06
36.109,-0.03,0.03,-0.00,0.05
36.119,-0.00,0.09,0.03,0.10
36.129,0.03,0.13,0.01,0.13
36.139,0.02,0.05,0.00,0.06
36.149,0.02,-0.00,0.02,0.02
36.159,0.02,0.03,0.03,0.05
36.169,0.06,0.10,0.02,0.12
36.179,0.05,0.05,-0.05,0.09
36.189,-0.02,-0.00,-0.05,0.06
36.199,-0.02,0.03,0.04,0.05
36.209,0.00,0.10,0.06,0.12
36.219,0.00,0.11,0.01,0.11
36.229,-0.03,0.03,-0.02,0.04
36.239,0.00,0.04,0.05,0.06
36.249,0.00,0.09,0.07,0.11
36.259,0.02,0.12,0.02,0.12
36.268,-0.02,0.06,-0.01,0.07
36.279,-0.02,0.02,-0.00,0.03
36.288,-0.01,0.07,0.04,0.08
36.299,0.02,0.14,0.03,0.14
36.308,-0.00,0.07,-0.00,0.07
36.318,-0.02,0.01,-0.01,0.03
36.328,-0.02,0.02,0.02,0.04
36.338,0.03,0.09,0.03,0.10
36.348,0.01,0.07,0.00,0.08
36.358,-0.02,0.01,-0.02,0.03
36.368,-0.02,0.01,0.01,0.02
36.378,0.02,0.06,0.05,0.08
36.388,0.02,0.09,0.01,0.09
36.398,-0.01,0.04,-0.03,0.06
36.408,-0.01,-0.01,-0.01,0.01
36.418,0.00,0.06,0.06,0.08
36.428,0.05,0.12,0.04,0.13
36.438,0.00,0.06,-0.02,0.06
36.448,-0.01,0.01,-0.02,0.02
36.458,0.00,0.03,0.04,0.05
36.467,0.04,0.09,0.04,0.11
36.477,0.02,0.06,0.01,0.07
36.487,-0.02,0.03,0.00,0.03
36.497,-0.03,0.05,0.06,0.08
36.507,0.02,0.10,0.06,0.12
36.517,0.02,0.10,-0.00,0.10
36.527,-0.02,0.03,-0.02,0.04
36.537,-0.02,-0.01,0.03,0.04
36.547,0.00,0.06,0.06,0.09
36.557,0.04,0.10,0.04,0.12
36.567,0.01,0.07,-0.01,0.08
36.577,-0.00,-0.01,0.00,0.01
36.587,0.02,0.04,0.05,0.07
36.597,0.04,0.09,0.04,0.11
36.607,0.00,0.07,0.01,0.08
36.617,-0.03,0.02,-0.01,0.04
36.627,-0.02,0.05,0.04,0.07
36.637,0.04,0.09,0.02,0.10
36.646,0.02,0.08,-0.03,0.08
36.657,-0.02,0.01,-0.04,0.05
36.666,-0.02,0.01,-0.00,0.02
36.677,-0.00,0.08,0.02,0.08
36.686,-0.01,0.12,-0.01,0.12
36.696,-0.04,0.07,-0.01,0.08
36.706,-0.05,0.02,0.01,0.06
36.716,-0.04,0.07,0.05,0.10
36.726,-0.02,0.11,0.03,0.12
36.736,-0.02,0.07,-0.02,0.07
36.746,-0.03,0.00,-0.03,0.04
36.756,-0.02,0.05,0.04,0.07
36.766,-0.01,0.11,0.05,0.12
36.776,-0.01,0.09,-0.03,0.10
36.786,-0.02,0.04,-0.03,0.05
36.796,-0.01,0.04,0.01,0.05
36.806,-0.00,0.07,0.03,0.08
36.816,0.03,0.10,0.00,0.10
36.826,-0.00,0.05,-0.00,0.05
36.836,-0.01,0.02,0.01,0.03
36.846,0.00,0.05,0.04,0.06
36.856,0.03,0.10,0.02,0.11
36.865,0.01,0.06,0.01,0.06
36.876,-0.01,0.02,0.02,0.03
36.885,-0.01,0.05,0.07,0.09
36.895,0.03,0.12,0.05,0.13
36.905,0.03,0.09,-0.01,0.10
36.915,-0.00,0.00,-0.00,0.01
36.925,-0.00,0.01,0.06,0.06
36.935,0.05,0.08,0.08,0.12
36.945,0.05,0.07,0.00,0.09
36.955,0.01,0.02,-0.03,0.04
36.965,-0.01,0.01,0.01,0.02
36.975,0.00,0.04,0.05,0.06
36.985,0.04,0.08,0.03,0.09
36.995,0.01,0.04,0.01,0.04
37.005,-0.01,0.00,0.04,0.04
37.015,-0.01,0.05,0.07,0.09
37.025,0.03,0.12,0.03,0.13
37.035,-0.01,0.10,-0.02,0.10
37.045,-0.01,0.03,0.00,0.03
37.055,-0.03,0.04,0.05,0.07
37.064,0.02,0.12,0.04,0.13
37.075,-0.02,0.12,-0.02,0.12
37.084,-0.05,0.05,-0.05,0.08
37.094,-0.04,0.03,-0.02,0.05
37.104,-0.03,0.09,0.02,0.09
37.114,-0.00,0.10,-0.01,0.10
37.124,-0.01,0.02,-0.03,0.04
37.134,-0.03,0.00,-0.00,0.03
37.144,-0.02,0.07,0.03,0.08
37.154,0.02,0.11,0.02,0.11
37.164,-0.00,0.04,-0.02,0.05
37.174,-0.02,0.01,-0.02,0.03
37.184,-0.01,0.05,0.05,0.07
37.194,0.03,0.08,0.04,0.09
37.204,-0.00,0.06,-0.03,0.07
37.214,0.00,0.01,-0.02,0.02
37.224,0.01,0.02,0.06,0.06
37.234,0.03,0.08,0.07,0.11
37.244,0.03,0.09,0.02,0.10
37.254,0.01,0.02,-0.01,0.02
37.263,0.00,-0.02,0.05,0.05
37.274,0.02,0.07,0.09,0.12
37.283,0.02,0.12,0.05,0.13
37.293,-0.01,0.04,-0.00,0.04
37.303,-0.00,0.01,0.00,0.01
37.313,-0.01,0.03,0.05,0.06
37.323,0.03,0.09,0.03,0.10
37.333,-0.00,0.05,0.01,0.05
37.343,0.00,0.02,0.02,0.03
37.353,-0.00,0.06,0.05,0.08
37.363,0.05,0.11,0.05,0.13
37.373,0.04,0.07,-0.01,0.08
37.383,0.00,0.02,-0.02,0.03
37.393,-0.00,0.01,0.03,0.03
37.403,0.00,0.09,0.05,0.10
37.413,0.02,0.13,0.00,0.13
37.423,-0.00,0.03,-0.05,0.05
37.433,-0.02,-0.01,-0.01,0.03
37.443,-0.01,0.07,0.04,0.08
37.453,0.01,0.13,0.02,0.13
37.462,-0.03,0.07,-0.01,0.08
37.473,-0.04,0.01,-0.03,0.05
37.482,-0.03,0.04,0.05,0.07
37.492,0.01,0.11,0.03,0.11
37.502,-0.02,0.07,-0.00,0.07
37.512,-0.03,0.01,-0.03,0.04
37.522,-0.03,0.01,0.04,0.05
37.532,0.02,0.10,0.03,0.10
37.542,-0.00,0.11,0.00,0.11
37.552,-0.03,0.06,-0.01,0.07
37.562,-0.03,0.03,0.03,0.05
37.572,-0.01,0.08,0.05,0.10
37.582,0.02,0.10,0.03,0.11
37.592,-0.01,0.03,-0.04,0.05
37.602,0.01,-0.02,-0.01,0.02
37.612,0.02,0.06,0.06,0.08
37.622,0.04,0.11,0.06,0.13
37.632,0.00,0.07,0.00,0.07
37.642,-0.02,0.01,-0.01,0.03
37.652,-0.01,0.02,0.06,0.06
37.661,0.03,0.09,0.06,0.11
37.672,0.04,0.09,-0.01,0.10
37.681,0.02,0.01,0.01,0.02
37.691,-0.01,0.02,0.03,0.04
37.701,0.03,0.11,0.07,0.13
37.711,0.05,0.13,0.02,0.14
37.721,0.01,0.03,-0.03,0.04
37.731,-0.00,-0.01,0.02,0.02
37.741,0.02,0.06,0.07,0.10
37.751,0.06,0.11,0.02,0.12
37.761,0.01,0.06,-0.04,0.07
37.771,-0.01,0.00,-0.03,0.03
37.781,-0.01,0.03,0.04,0.05
37.791,-0.00,0.12,0.05,0.13
37.801,-0.02,0.11,0.00,0.11
37.811,-0.03,0.07,-0.01,0.07
37.821,-0.04,0.06,0.01,0.08
37.831,-0.00,0.10,0.03,0.11
37.841,0.00,0.11,-0.01,0.11
37.851,-0.05,0.04,-0.01,0.07
37.861,-0.05,0.02,0.01,0.06
37.871,-0.03,0.09,0.05,0.10
37.880,-0.00,0.13,-0.02,0.13
37.891,-0.02,0.04,-0.05,0.06
37.900,-0.02,-0.00,-0.01,0.02
37.910,-0.00,0.04,0.07,0.08
37.920,0.03,0.10,0.07,0.12
37.930,-0.00,0.06,-0.02,0.06
37.940,-0.00,-0.00,-0.04,0.04
37.950,-0.01,0.02,0.04,0.04
37.960,0.02,0.11,0.06,0.13
37.970,0.02,0.12,-0.00,0.12
37.980,-0.01,0.04,-0.01,0.04
37.990,0.01,0.01,0.01,0.02
38.000,0.06,0.08,0.06,0.12
38.010,0.07,0.09,0.03,0.11
38.020,0.03,0.02,-0.00,0.04
38.030,0.01,-0.01,0.01,0.02
38.040,0.01,0.07,0.05,0.09
38.050,0.01,0.13,0.03,0.13
38.060,-0.02,0.08,0.02,0.08
38.070,-0.04,0.03,0.02,0.05
38.079,-0.03,0.04,0.05,0.07
38.089,0.01,0.10,0.05,0.11
38.099,0.02,0.09,-0.02,0.09
38.109,-0.01,0.01,-0.03,0.03
38.119,-0.02,0.00,0.03,0.03
38.129,-0.00,0.08,0.06,0.10
38.139,0.02,0.12,0.03,0.13
38.149,-0.02,0.05,-0.02,0.06
38.159,-0.03,-0.00,-0.01,0.03
38.169,0.01,0.04,0.03,0.05
38.179,0.02,0.09,0.03,0.09
38.189,-0.03,0.04,-0.00,0.05
38.199,-0.03,0.02,-0.00,0.03
38.209,-0.02,0.05,0.04,0.07
38.219,0.01,0.12,0.01,0.12
38.229,-0.00,0.07,-0.03,0.08
38.239,-0.02,-0.01,-0.02,0.03
38.249,-0.03,-0.00,0.06,0.06
38.259,-0.01,0.09,0.07,0.12
38.269,0.02,0.13,-0.00,0.13
38.278,-0.01,0.06,-0.05,0.08
38.288,-0.00,0.01,0.01,0.01
38.298,0.01,0.08,0.06,0.10
38.308,0.05,0.11,0.05,0.13
38.318,0.01,0.06,-0.00,0.06
38.328,-0.01,0.02,0.02,0.03
38.338,-0.01,0.07,0.05,0.09
38.348,0.01,0.13,0.04,0.14
38.358,-0.01,0.06,-0.01,0.06
38.368,-0.02,0.00,-0.02,0.03
38.378,0.00,0.01,0.03,0.04
38.388,0.02,0.10,0.03,0.11
38.398,0.02,0.11,0.00,0.11
38.408,-0.02,0.04,-0.03,0.05
38.418,-0.03,0.02,0.02,0.04
38.428,0.01,0.08,0.07,0.10
38.438,0.02,0.11,0.03,0.11
38.448,-0.00,0.03,-0.02,0.03
38.457,0.01,0.01,-0.01,0.02
38.468,0.02,0.07,0.05,0.09
38.477,0.02,0.12,0.03,0.13
38.487,-0.02,0.07,-0.01,0.07
38.497,-0.01,0.01,-0.00,0.02
38.507,-0.01,0.03,0.04,0.06
38.517,0.03,0.08,0.05,0.10
38.527,0.04,0.08,0.00,0.09
38.537,0.01,0.01,-0.03,0.04
38.547,-0.02,0.00,0.01,0.02
38.557,0.00,0.07,0.04,0.08
38.567,-0.02,0.12,0.01,0.12
38.577,-0.03,0.02,-0.00,0.04
38.587,-0.04,0.02,0.04,0.05
38.597,0.01,0.09,0.08,0.12
38.607,0.03,0.13,0.01,0.14
38.617,0.01,0.06,-0.06,0.08
38.627,-0.01,0.01,-0.03,0.03
38.637,-0.02,0.05,0.04,0.07
38.647,0.01,0.11,0.05,0.12
38.656,-0.02,0.13,-0.00,0.13
38.667,-0.05,0.04,-0.03,0.07
38.676,-0.02,0.03,0.02,0.04
38.688,0.02,0.09,0.05,0.10
38.696,0.02,0.09,0.01,0.09
38.706,-0.02,0.02,0.00,0.02
38.716,-0.03,0.02,0.03,0.04
38.726,0.02,0.08,0.04,0.10
38.736,0.04,0.10,0.00,0.11
38.746,0.02,0.05,-0.02,0.06
38.756,-0.00,0.01,0.02,0.02
38.766,0.01,0.07,0.09,0.11
38.776,0.04,0.11,0.02,0.12
38.786,0.02,0.06,-0.03,0.07
38.796,0.01,0.01,-0.03,0.03
38.806,0.01,0.02,0.01,0.02
38.816,0.04,0.09,0.02,0.10
38.826,0.00,0.08,0.01,0.08
38.836,-0.02,0.02,-0.01,0.03
38.846,-0.03,0.02,0.02,0.05
38.855,0.02,0.10,0.06,0.12
38.866,0.03,0.11,0.03,0.12
38.875,-0.00,0.03,-0.01,0.03
38.885,-0.02,-0.01,0.01,0.02
38.895,-0.00,0.06,0.06,0.09
38.905,0.01,0.12,0.03,0.12
38.915,-0.01,0.07,-0.02,0.08
38.925,-0.03,0.03,-0.01,0.04
38.935,-0.01,0.04,0.05,0.06
38.945,0.04,0.10,0.04,0.12
38.955,0.02,0.07,-0.00,0.07
38.965,-0.01,0.01,-0.01,0.02
38.975,-0.02,0.02,0.03,0.04
38.985,0.01,0.11,0.06,0.13
38.995,0.00,0.11,0.02,0.11
39.005,-0.01,0.03,-0.03,0.04
39.015,-0.03,0.00,-0.00,0.03
39.025,0.00,0.06,0.04,0.07
39.035,0.03,0.08,0.02,0.09
39.045,-0.01,0.05,-0.01,0.06
39.054,-0.02,0.03,-0.01,0.04
39.065,0.01,0.06,0.04,0.07
39.074,0.01,0.11,0.03,0.12
39.085,-0.01,0.10,-0.01,0.10
39.094,-0.03,0.01,-0.01,0.03
39.104,-0.02,0.03,0.05,0.07
39.114,0.02,0.13,0.06,0.14
39.124,0.02,0.11,-0.01,0.11
39.134,-0.01,0.01,-0.05,0.05
39.144,-0.01,0.01,0.01,0.02
39.154,0.02,0.07,0.05,0.09
39.164,0.01,0.12,0.03,0.12
39.174,-0.02,0.07,-0.01,0.07
39.184,-0.02,0.04,-0.01,0.04
39.194,-0.01,0.07,0.04,0.08
39.204,0.03,0.11,0.03,0.12
39.214,0.01,0.07,-0.01,0.07
39.224,-0.01,-0.01,0.02,0.02
39.234,-0.01,0.04,0.05,0.06
39.244,0.03,0.10,0.03,0.11
39.253,0.01,0.10,-0.01,0.10
39.264,-0.01,0.03,-0.04,0.05
39.273,-0.01,0.02,0.03,0.04
39.283,0.03,0.09,0.07,0.12
39.293,0.03,0.09,0.03,0.10
39.303,-0.00,0.03,-0.01,0.03
39.313,-0.00,-0.00,-0.01,0.01
39.323,0.02,0.06,0.04,0.07
39.333,0.06,0.09,0.00,0.11
39.343,0.01,0.04,-0.03,0.06
39.353,-0.02,0.02,-0.01,0.03
39.363,-0.03,0.04,0.04,0.07
39.373,0.01,0.12,0.04,0.13
39.383,0.00,0.10,0.01,0.10
39.393,-0.02,0.03,0.01,0.04
39.403,-0.01,0.03,0.05,0.06
39.413,0.03,0.11,0.03,0.12
39.423,0.02,0.12,-0.01,0.12
39.433,-0.03,0.06,-0.04,0.07
39.443,-0.05,0.03,0.03,0.06
39.453,-0.01,0.08,0.07,0.11
39.463,0.01,0.11,0.02,0.11
39.472,-0.03,0.06,-0.02,0.07
39.483,-0.02,-0.01,-0.01,0.02
39.492,-0.01,0.02,0.06,0.06
39.502,0.01,0.11,0.06,0.13
39.512,0.00,0.10,0.02,0.10
39.522,0.00,0.00,-0.03,0.03
39.532,0.00,0.01,0.04,0.04
39.542,0.03,0.08,0.05,0.10
39.552,0.03,0.10,-0.00,0.11
39.562,-0.00,0.04,-0.03,0.05
39.572,-0.02,0.02,0.02,0.03
39.582,0.01,0.09,0.05,0.10
39.592,0.04,0.13,-0.00,0.14
39.602,-0.00,0.05,-0.05,0.07
39.612,-0.00,-0.02,0.00,0.02
39.622,0.00,0.02,0.07,0.07
39.632,0.03,0.11,0.05,0.12
39.642,0.00,0.09,-0.02,0.09
39.652,0.00,0.03,-0.03,0.04
39.662,-0.02,0.03,0.03,0.04
39.671,0.00,0.11,0.07,0.13
39.682,-0.00,0.11,0.01,0.11
39.691,-0.00,0.03,-0.02,0.03
39.701,-0.03,0.00,0.02,0.04
39.711,0.03,0.08,0.05,0.10
39.721,0.04,0.11,0.02,0.11
39.731,-0.01,0.04,-0.02,0.04
39.741,-0.01,-0.00,0.01,0.01
39.751,-0.01,0.05,0.05,0.07
39.761,0.02,0.12,0.03,0.13
39.771,-0.01,0.07,-0.03,0.08
39.781,-0.02,0.00,-0.01,0.02
39.791,-0.02,0.02,0.05,0.05
39.801,0.00,0.10,0.05,0.11
39.811,-0.01,0.08,-0.04,0.09
39.821,-0.01,-0.00,-0.05,0.05
39.831,-0.02,0.00,0.01,0.02
39.841,0.01,0.10,0.06,0.11
39.851,0.02,0.13,0.02,0.14
39.861,-0.01,0.07,-0.01,0.07
39.870,-0.04,0.03,-0.00,0.05
39.881,-0.02,0.05,0.05,0.08
39.890,0.04,0.13,0.04,0.14
39.901,0.03,0.07,0.01,0.08
39.910,-0.01,0.01,-0.02,0.02
39.920,-0.02,0.05,0.04,0.06
39.930,0.03,0.13,0.02,0.14
39.940,0.00,0.10,-0.02,0.10
39.950,-0.02,0.02,-0.03,0.04
39.960,-0.03,0.00,0.05,0.06
39.970,0.01,0.08,0.08,0.12
39.980,0.02,0.11,0.01,0.11
39.990,-0.01,0.03,-0.03,0.05
40.000,-0.01,0.00,-0.01,0.01
40.010,0.00,0.04,0.07,0.08
40.020,0.01,0.11,0.06,0.13
40.030,0.00,0.09,-0.02,0.09
40.040,-0.02,0.03,-0.03,0.05
40.049,-0.02,0.03,0.02,0.04
40.060,0.02,0.09,0.03,0.10
40.069,0.03,0.10,0.01,0.10
40.080,0.00,0.02,0.00,0.02
40.089,-0.00,-0.00,0.03,0.03
40.100,0.05,0.08,0.04,0.11
40.109,0.05,0.09,-0.02,0.11
40.119,0.01,0.00,-0.05,0.05
40.129,0.00,-0.02,0.01,0.02
40.139,-0.01,0.06,0.07,0.09
40.149,0.03,0.14,0.02,0.14
40.159,-0.01,0.08,-0.01,0.08
40.169,-0.04,0.02,0.00,0.04
40.179,-0.02,0.04,0.06,0.08
40.189,0.02,0.13,0.04,0.14
40.199,-0.01,0.12,0.00,0.12
40.209,-0.04,0.02,-0.00,0.05
40.219,-0.04,0.05,0.01,0.06
40.229,-0.01,0.13,0.04,0.14
40.239,0.01,0.13,0.01,0.13
40.249,-0.01,0.02,-0.00,0.03
40.259,-0.01,0.01,0.02,0.02
40.268,-0.01,0.07,0.03,0.08
40.278,0.02,0.10,-0.01,0.10
40.288,-0.00,0.04,0.00,0.05
40.298,-0.01,0.02,0.02,0.03
40.308,-0.01,0.06,0.03,0.07
40.318,0.03,0.10,0.02,0.10
40.328,0.00,0.05,-0.02,0.05
40.338,-0.01,-0.01,-0.00,0.01
40.348,0.00,0.02,0.04,0.04
40.358,0.02,0.11,0.06,0.12
40.368,0.05,0.12,0.02,0.13
40.378,-0.02,0.02,-0.01,0.03
40.388,-0.01,0.01,0.01,0.02
40.398,0.03,0.10,0.03,0.10
40.408,0.02,0.12,0.01,0.13
40.418,-0.03,0.04,0.01,0.05
40.428,0.01,0.04,0.04,0.06
40.438,0.01,0.09,0.05,0.11
40.448,0.02,0.16,0.02,0.16
40.458,-0.01,0.10,-0.01,0.10
40.467,-0.03,0.03,0.02,0.05
40.477,-0.01,0.06,0.04,0.08
40.487,0.02,0.16,0.03,0.16
40.497,0.02,0.16,-0.02,0.17
40.507,-0.03,0.04,0.01,0.05
40.517,-0.01,0.05,0.03,0.06
40.527,0.04,0.13,0.05,0.15
40.537,0.03,0.17,-0.00,0.17
40.547,-0.01,0.07,0.01,0.07
40.557,0.01,0.06,0.07,0.09
40.567,0.04,0.12,0.06,0.14
40.577,0.06,0.16,-0.02,0.17
40.587,-0.01,0.09,-0.01,0.09
40.597,-0.00,0.04,0.06,0.07
40.607,0.01,0.08,0.08,0.11
40.617,0.05,0.15,0.02,0.16
40.627,0.04,0.13,-0.02,0.14
40.637,-0.01,0.11,0.04,0.12
40.647,0.02,0.13,0.08,0.16
40.657,0.04,0.21,0.05,0.22
40.666,0.02,0.22,0.01,0.22
40.677,-0.05,0.18,0.08,0.20
40.686,0.01,0.21,0.14,0.25
40.696,0.04,0.30,0.09,0.32
40.706,0.04,0.34,0.07,0.35
40.716,0.01,0.31,0.09,0.32
40.726,0.03,0.27,0.16,0.32
40.736,0.10,0.35,0.15,0.40
40.746,0.11,0.41,0.08,0.43
40.756,0.09,0.39,0.09,0.41
40.766,0.09,0.37,0.15,0.41
40.776,0.13,0.39,0.15,0.44
40.786,0.14,0.45,0.09,0.48
40.796,0.12,0.43,0.07,0.45
40.806,0.08,0.38,0.16,0.41
40.816,0.10,0.40,0.20,0.46
40.826,0.13,0.47,0.17,0.52
40.836,0.12,0.48,0.11,0.51
40.846,0.08,0.41,0.15,0.45
40.856,0.10,0.38,0.18,0.43
40.865,0.15,0.43,0.17,0.48
40.876,0.16,0.46,0.13,0.50
40.885,0.12,0.39,0.13,0.43
40.895,0.13,0.33,0.20,0.40
40.905,0.19,0.41,0.16,0.48
40.915,0.21,0.45,0.08,0.51
40.925,0.13,0.39,0.08,0.42
40.935,0.06,0.33,0.18,0.38
40.945,0.14,0.40,0.20,0.46
40.955,0.15,0.49,0.10,0.52
40.965,0.14,0.44,0.07,0.47
40.975,0.09,0.34,0.15,0.38
40.985,0.13,0.37,0.18,0.43
40.995,0.17,0.44,0.13,0.49
41.005,0.16,0.44,0.05,0.47
41.015,0.11,0.37,0.10,0.40
41.025,0.12,0.37,0.18,0.43
41.035,0.13,0.45,0.13,0.49
41.045,0.14,0.46,0.04,0.49
41.055,0.05,0.38,0.10,0.40
41.064,0.07,0.34,0.17,0.38
41.074,0.10,0.37,0.17,0.42
41.084,0.15,0.45,0.07,0.48
41.094,0.09,0.42,0.05,0.43
41.104,0.02,0.32,0.15,0.35
41.114,0.10,0.35,0.17,0.40
41.124,0.13,0.42,0.09,0.45
41.134,0.07,0.41,0.05,0.42
41.144,0.04,0.33,0.16,0.37
41.154,0.08,0.33,0.21,0.40
41.164,0.11,0.41,0.15,0.45
41.174,0.11,0.41,0.04,0.42
41.184,0.04,0.32,0.13,0.35
41.194,0.06,0.30,0.22,0.38
41.204,0.11,0.36,0.16,0.41
41.214,0.14,0.39,0.06,0.42
41.224,0.09,0.34,0.10,0.36
41.234,0.07,0.29,0.19,0.35
41.244,0.13,0.29,0.18,0.36
41.254,0.16,0.37,0.07,0.41
41.264,0.12,0.34,0.08,0.37
41.273,0.07,0.29,0.19,0.35
41.283,0.11,0.30,0.21,0.38
41.293,0.15,0.38,0.08,0.41
41.303,0.12,0.34,0.01,0.36
41.313,0.08,0.24,0.14,0.29
41.323,0.10,0.20,0.17,0.28
41.333,0.12,0.24,0.10,0.29
41.343,0.14,0.29,0.01,0.32
41.353,0.06,0.24,0.04,0.25
41.363,0.01,0.14,0.13,0.19
41.373,0.02,0.16,0.10,0.19
41.383,0.06,0.18,-0.04,0.19
41.393,0.01,0.12,-0.05,0.13
41.403,-0.03,0.05,0.06,0.09
41.413,-0.01,0.07,0.10,0.12
41.423,0.01,0.09,0.00,0.09
41.433,0.01,0.09,-0.09,0.13
41.442,-0.02,0.02,-0.04,0.05
41.453,-0.06,0.01,0.04,0.08
41.462,-0.02,0.06,0.05,0.08
41.472,-0.01,0.11,-0.03,0.12
41.482,-0.04,0.03,-0.03,0.06
41.492,-0.02,-0.02,0.02,0.04
41.502,0.01,0.02,0.01,0.02
41.512,0.05,0.06,-0.07,0.11
41.522,-0.03,0.01,-0.06,0.07
41.532,-0.03,-0.02,0.04,0.05
41.542,-0.02,0.03,0.02,0.04
41.552,0.01,0.09,-0.03,0.10
41.562,-0.04,0.06,-0.05,0.09
41.572,-0.08,-0.06,0.05,0.11
41.582,-0.06,-0.02,0.06,0.09
41.592,-0.03,0.04,-0.02,0.05
41.602,-0.06,-0.01,-0.05,0.08
41.612,-0.06,-0.08,0.03,0.10
41.622,-0.04,-0.05,0.06,0.09
41.632,0.01,0.00,-0.00,0.01
41.642,0.00,-0.01,-0.08,0.08
41.652,-0.07,-0.11,0.02,0.13
41.661,-0.03,-0.08,0.07,0.11
41.671,0.01,0.01,0.02,0.02
41.681,-0.01,-0.01,-0.08,0.08
41.691,-0.05,-0.09,-0.03,0.10
41.701,-0.04,-0.10,0.04,0.12
41.711,-0.01,-0.02,-0.02,0.03
41.721,-0.01,0.01,-0.12,0.12
41.731,-0.05,-0.08,-0.08,0.12
41.741,-0.05,-0.13,-0.02,0.14
41.751,-0.01,-0.08,-0.06,0.10
41.761,-0.02,-0.05,-0.14,0.15
41.771,-0.08,-0.10,-0.12,0.18
41.781,-0.10,-0.13,-0.02,0.17
41.791,-0.09,-0.11,-0.02,0.14
41.801,-0.07,-0.06,-0.10,0.14
41.811,-0.08,-0.09,-0.13,0.18
41.821,-0.11,-0.14,-0.05,0.19
41.831,-0.10,-0.17,-0.02,0.20
41.840,-0.06,-0.13,-0.11,0.18
41.851,-0.06,-0.16,-0.16,0.23
41.860,-0.08,-0.22,-0.12,0.27
41.871,-0.06,-0.24,-0.06,0.25
41.880,-0.08,-0.18,-0.09,0.22
41.890,-0.10,-0.18,-0.15,0.25
41.900,-0.12,-0.24,-0.11,0.29
41.910,-0.10,-0.29,-0.03,0.30
41.920,-0.08,-0.26,-0.07,0.29
41.930,-0.07,-0.20,-0.15,0.26
41.940,-0.13,-0.25,-0.12,0.31
41.950,-0.14,-0.29,-0.03,0.32
41.960,-0.11,-0.20,-0.02,0.23
41.970,-0.10,-0.12,-0.11,0.19
41.980,-0.14,-0.17,-0.09,0.24
41.990,-0.13,-0.24,-0.03,0.28
42.000,-0.09,-0.19,-0.04,0.22
42.010,-0.05,-0.13,-0.12,0.18
42.020,-0.07,-0.19,-0.15,0.26
42.030,-0.09,-0.28,-0.10,0.30
42.040,-0.07,-0.23,-0.05,0.24
42.050,-0.05,-0.14,-0.11,0.19
42.059,-0.10,-0.15,-0.13,0.23
42.070,-0.15,-0.22,-0.06,0.27
42.079,-0.11,-0.22,-0.03,0.25
42.089,-0.10,-0.16,-0.11,0.22
42.099,-0.11,-0.15,-0.16,0.24
42.109,-0.14,-0.26,-0.08,0.31
42.119,-0.15,-0.26,-0.03,0.30
42.129,-0.11,-0.17,-0.06,0.21
42.139,-0.11,-0.14,-0.12,0.22
42.149,-0.15,-0.22,-0.06,0.27
42.159,-0.15,-0.24,0.01,0.28
42.169,-0.10,-0.17,-0.03,0.20
42.179,-0.09,-0.14,-0.10,0.19
42.189,-0.12,-0.19,-0.10,0.25
42.199,-0.10,-0.24,-0.02,0.26
42.209,-0.08,-0.18,-0.04,0.20
42.219,-0.02,-0.11,-0.14,0.18
42.229,-0.08,-0.19,-0.16,0.26
42.239,-0.08,-0.28,-0.07,0.30
42.249,-0.04,-0.23,-0.07,0.24
42.258,0.01,-0.16,-0.16,0.23
42.269,-0.01,-0.19,-0.20,0.28
42.278,-0.08,-0.27,-0.10,0.30
42.288,-0.08,-0.25,-0.06,0.27
42.298,-0.04,-0.17,-0.14,0.23
42.308,-0.07,-0.18,-0.17,0.26
42.318,-0.13,-0.25,-0.08,0.29
42.328,-0.12,-0.24,-0.02,0.27
42.338,-0.10,-0.17,-0.07,0.20
42.348,-0.11,-0.15,-0.16,0.25
42.358,-0.17,-0.23,-0.08,0.30
42.368,-0.17,-0.26,-0.02,0.31
42.378,-0.14,-0.17,-0.04,0.22
42.388,-0.12,-0.11,-0.12,0.20
42.398,-0.17,-0.16,-0.09,0.25
42.408,-0.18,-0.25,-0.03,0.31
42.418,-0.13,-0.19,-0.06,0.24
42.428,-0.11,-0.12,-0.17,0.24
42.437,-0.14,-0.18,-0.13,0.27
42.448,-0.16,-0.25,-0.05,0.30
42.457,-0.16,-0.20,-0.04,0.26
42.468,-0.09,-0.15,-0.14,0.22
42.477,-0.10,-0.16,-0.15,0.24
42.487,-0.12,-0.27,-0.09,0.31
42.497,-0.12,-0.28,-0.03,0.30
42.507,-0.05,-0.20,-0.09,0.22
42.517,-0.04,-0.16,-0.14,0.21
42.527,-0.08,-0.23,-0.08,0.26
42.537,-0.06,-0.25,-0.01,0.26
42.547,-0.01,-0.19,-0.07,0.20
42.557,-0.01,-0.14,-0.14,0.20
42.567,-0.07,-0.19,-0.10,0.23
42.577,-0.06,-0.23,-0.01,0.24
42.587,-0.02,-0.14,-0.02,0.14
42.597,0.02,-0.06,-0.08,0.10
42.607,-0.05,-0.12,-0.10,0.17
42.617,-0.06,-0.18,-0.04,0.19
42.627,-0.09,-0.13,0.00,0.15
42.637,-0.07,0.00,-0.05,0.09
42.647,-0.12,-0.00,-0.05,0.13
42.656,-0.10,0.00,-0.00,0.10
42.667,-0.10,0.04,0.04,0.11
42.676,-0.10,0.11,0.05,0.16
42.687,-0.09,0.16,0.04,0.19
42.696,-0.08,0.14,0.03,0.16
42.706,-0.04,0.15,0.06,0.17
42.716,-0.02,0.20,0.09,0.22
42.726,0.05,0.29,0.06,0.30
42.736,0.08,0.27,0.03,0.28
42.746,0.09,0.22,0.03,0.24
42.756,0.10,0.22,0.06,0.25
