time,ax,ay,az,atotal
0.000,-0.13,-0.97,1.06,1.44
0.010,-0.62,-0.74,1.14,1.49
0.020,-0.85,-0.57,1.11,1.51
0.030,-0.90,-0.60,0.87,1.39
0.040,-0.78,-0.64,0.74,1.25
0.050,-0.59,-0.65,0.59,1.05
0.060,-0.52,-0.58,0.46,0.91
0.070,-0.48,-0.61,0.42,0.89
0.080,-0.45,-0.70,0.38,0.91
0.090,-0.36,-0.81,0.35,0.95
0.100,-0.29,-0.93,0.39,1.05
0.110,-0.31,-1.06,0.41,1.18
0.119,-0.31,-1.11,0.46,1.24
0.130,-0.22,-1.15,0.50,1.27
0.140,-0.09,-1.26,0.42,1.33
0.149,0.02,-1.35,0.39,1.40
0.159,0.09,-1.41,0.37,1.46
0.169,0.11,-1.34,0.44,1.41
0.179,0.17,-1.27,0.52,1.38
0.189,0.33,-1.14,0.58,1.32
0.199,0.51,-1.03,0.72,1.36
0.209,0.68,-1.11,0.90,1.59
0.219,0.99,-1.19,1.02,1.85
0.229,1.31,-1.19,1.17,2.12
0.239,1.42,-1.26,1.47,2.40
0.249,1.15,-0.94,1.29,1.96
0.259,0.50,-0.30,0.85,1.03
0.269,0.51,-0.50,0.85,1.11
0.279,1.06,-0.84,0.81,1.57
0.289,1.21,-0.90,0.74,1.68
0.298,0.90,-1.01,0.85,1.59
0.309,0.63,-0.78,0.83,1.31
0.318,0.47,-0.40,0.87,1.07
0.329,0.45,-0.40,0.73,0.95
0.338,0.43,-0.75,0.47,0.98
0.348,0.35,-0.88,0.42,1.04
0.358,0.26,-0.87,0.65,1.11
0.368,0.24,-0.82,0.84,1.20
0.378,0.21,-1.03,1.10,1.52
0.388,0.27,-1.30,1.34,1.89
0.398,0.26,-1.54,1.43,2.12
0.408,0.23,-1.77,1.48,2.32
0.418,0.18,-1.87,1.40,2.35
0.428,0.11,-1.86,1.17,2.20
0.438,0.00,-1.95,0.93,2.15
0.448,-0.08,-2.00,0.71,2.12
0.458,-0.20,-2.04,0.51,2.12
0.468,-0.33,-2.11,0.39,2.17
0.478,-0.34,-2.16,0.30,2.21
0.488,-0.39,-2.10,0.26,2.15
0.497,-0.43,-2.17,0.17,2.22
0.508,-0.48,-2.29,-0.01,2.34
0.517,-0.44,-2.27,-0.06,2.31
0.527,-0.49,-2.21,-0.07,2.27
0.537,-0.49,-2.12,-0.45,2.22
0.547,-0.39,-1.94,-0.74,2.11
0.557,-0.33,-1.84,-0.69,1.99
0.567,-0.18,-1.80,-0.44,1.86
0.577,-0.50,-1.69,-0.30,1.79
0.587,-0.47,-1.53,-0.20,1.61
0.597,-0.22,-1.47,-0.04,1.49
0.607,-0.03,-1.59,0.14,1.60
0.617,0.05,-1.64,0.33,1.68
0.627,0.08,-1.64,0.57,1.74
0.637,0.19,-1.53,0.85,1.76
0.647,-0.08,-1.30,0.59,1.43
0.657,-0.14,-1.96,0.65,2.07
0.667,0.40,-1.85,0.80,2.05
0.677,0.71,-1.70,0.55,1.92
0.687,0.73,-1.96,0.36,2.12
0.696,0.77,-2.31,0.31,2.46
0.706,0.88,-2.38,0.25,2.55
0.716,0.99,-1.86,0.44,2.15
0.726,0.94,-1.47,0.63,1.85
0.736,0.63,-1.29,0.90,1.70
0.746,0.11,-0.99,1.24,1.59
0.756,-0.47,-0.56,1.40,1.58
0.766,-0.65,-0.27,1.95,2.07
0.776,-0.49,-0.29,2.51,2.57
0.786,-0.17,-0.60,2.59,2.66
0.796,-0.59,-0.62,2.24,2.40
0.806,-0.54,-0.33,1.76,1.87
0.816,0.20,-0.43,1.45,1.52
0.826,0.34,-1.05,1.20,1.63
0.836,0.42,-1.82,0.85,2.05
0.846,1.45,-1.42,0.17,2.03
0.855,0.43,-1.51,-0.16,1.58
0.866,-0.28,-1.30,0.51,1.43
0.875,-0.19,-1.02,0.56,1.18
0.885,-0.04,-0.99,0.55,1.13
0.895,0.53,-1.27,0.80,1.59
0.905,1.09,-1.98,0.73,2.37
0.915,0.92,-2.31,0.52,2.54
0.925,0.56,-2.74,0.20,2.80
0.935,0.64,-2.66,0.09,2.74
0.945,0.70,-2.80,0.18,2.90
0.955,0.06,-3.11,3.74,4.86
0.965,1.03,-3.04,1.20,3.43
0.975,1.76,-2.23,2.99,4.13
0.985,1.09,-0.41,4.09,4.25
0.995,1.27,1.44,2.93,3.50
1.005,-0.02,2.23,1.59,2.74
1.015,-0.33,1.95,0.51,2.04
1.025,-0.94,1.38,0.21,1.68
1.035,-1.88,0.75,-0.04,2.03
1.045,-2.11,-0.22,0.13,2.13
1.054,-1.31,-1.49,0.11,1.98
1.065,0.06,-2.24,0.69,2.35
1.074,1.23,-2.32,1.64,3.09
1.084,1.85,-2.13,2.06,3.49
1.094,2.12,-1.90,1.89,3.42
1.104,2.09,-1.79,1.34,3.06
1.114,1.85,-1.93,1.13,2.90
1.124,1.41,-2.25,1.04,2.85
1.134,1.25,-2.70,0.75,3.06
1.144,0.77,-3.02,1.34,3.39
1.154,-0.55,-3.07,1.04,3.29
1.164,-1.30,-2.74,0.21,3.04
1.174,-1.16,-2.47,0.07,2.73
1.184,-0.36,-3.06,-0.16,3.09
1.194,-0.11,-3.60,-0.34,3.61
1.204,-0.62,-3.53,0.02,3.59
1.214,-1.03,-3.47,0.19,3.63
1.224,-1.27,-3.29,0.24,3.54
1.233,-1.45,-2.76,0.14,3.12
1.244,-2.13,-1.97,0.03,2.90
1.253,-2.81,-1.82,-0.31,3.36
1.263,-2.85,-2.59,-0.67,3.91
1.273,-2.19,-3.34,-0.69,4.05
1.283,-1.59,-3.51,-0.27,3.86
1.293,-0.46,-2.12,0.82,2.32
1.303,-0.47,-2.65,1.05,2.89
1.313,0.04,-2.63,1.55,3.05
1.323,0.96,-2.33,2.22,3.36
1.333,1.75,-2.30,2.98,4.15
1.343,2.38,-2.10,3.57,4.78
1.353,2.79,-1.81,3.84,5.08
1.363,2.53,-1.40,3.81,4.79
1.373,1.31,-0.96,3.39,3.76
1.383,0.37,-0.55,2.55,2.63
1.393,0.65,-0.41,2.14,2.27
1.403,1.29,-0.43,2.45,2.80
1.413,1.57,-0.45,3.03,3.45
1.423,1.32,-0.63,3.28,3.60
1.432,0.64,-0.71,3.37,3.50
1.442,0.42,0.04,3.72,3.74
1.452,0.70,0.46,3.66,3.76
1.462,1.02,0.36,3.42,3.58
1.472,1.11,0.35,3.07,3.28
1.482,0.94,0.56,2.64,2.86
1.492,1.31,0.95,0.14,1.62
1.502,4.40,2.64,-11.61,12.70
1.512,1.51,1.85,-1.36,2.75
1.522,1.13,1.47,-0.06,1.86
1.532,0.33,1.01,0.15,1.07
1.542,-0.68,1.26,1.21,1.87
1.552,-0.98,1.98,1.01,2.43
1.562,-0.95,1.47,0.55,1.84
1.572,-0.54,0.63,0.57,1.01
1.582,0.04,0.51,0.98,1.11
1.592,1.08,0.61,0.93,1.55
1.602,1.82,0.42,0.87,2.06
1.611,2.35,0.00,0.89,2.51
1.622,2.55,-0.42,1.30,2.90
1.631,1.99,-0.71,1.68,2.70
1.642,0.30,-1.27,3.21,3.47
1.651,-0.65,-2.14,4.37,4.91
1.661,-0.75,-2.42,3.64,4.43
1.671,-0.34,-2.23,2.76,3.57
1.681,0.58,-2.13,2.23,3.14
1.691,1.49,-2.01,1.58,2.96
1.701,2.08,-2.04,0.86,3.04
1.711,2.34,-2.28,0.54,3.31
1.721,1.96,-2.42,0.27,3.12
1.731,1.06,-2.33,0.12,2.56
1.741,0.41,-2.06,0.38,2.13
1.751,-0.44,-1.74,0.82,1.98
1.761,-1.45,-1.66,0.85,2.36
1.771,-2.26,-1.64,0.66,2.87
1.781,-3.00,-1.48,0.65,3.41
1.790,-3.46,-1.26,0.79,3.76
1.801,-3.54,-0.97,0.28,3.68
1.810,-2.68,-0.55,-2.02,3.40
1.820,2.47,0.68,-4.73,5.38
1.830,6.37,1.78,-6.60,9.35
1.840,6.01,2.14,-6.22,8.90
1.850,3.58,2.27,-3.36,5.41
1.860,0.92,1.59,-0.73,1.97
1.870,-0.70,0.51,-0.19,0.89
1.880,-3.24,-0.21,-1.20,3.47
1.890,-7.01,-0.77,-0.28,7.06
1.900,-6.14,-2.13,1.23,6.61
1.910,-0.11,-1.71,2.69,3.19
1.920,5.56,-0.06,4.36,7.07
1.930,6.95,-0.05,5.16,8.66
1.940,6.25,-0.54,5.72,8.49
1.950,6.77,0.03,3.37,7.56
1.960,5.54,0.29,0.95,5.63
1.970,1.86,0.23,-0.28,1.89
1.980,0.22,0.47,-0.56,0.77
1.990,0.04,0.89,-0.09,0.89
2.000,-0.28,1.49,0.23,1.53
2.009,-0.15,1.30,-0.12,1.31
2.019,0.59,1.31,0.12,1.44
2.029,2.07,1.80,0.64,2.81
2.039,1.64,1.27,1.22,2.41
2.049,0.32,0.27,1.52,1.58
2.059,0.56,0.35,1.27,1.43
2.069,0.11,0.15,1.23,1.25
2.079,-0.17,0.11,0.72,0.75
2.089,0.22,0.52,-0.34,0.66
2.099,1.59,0.38,0.11,1.64
2.109,0.69,1.13,-0.30,1.36
2.119,-0.07,3.00,-3.13,4.34
2.129,0.89,1.87,-2.97,3.62
2.139,1.32,0.84,-1.19,1.97
2.148,0.75,-0.42,1.12,1.41
2.159,0.24,-2.13,3.05,3.73
2.169,-0.07,-2.60,2.50,3.61
2.179,0.22,-2.67,1.15,2.91
2.188,0.62,-2.93,0.89,3.12
2.198,0.50,-3.56,0.86,3.70
2.208,0.93,-3.69,-0.12,3.81
2.218,1.13,-2.99,-0.31,3.21
2.228,0.44,-3.91,1.07,4.08
2.238,-0.20,-3.98,0.98,4.10
2.248,-0.33,-2.44,0.65,2.55
2.258,0.30,-1.44,0.58,1.58
2.268,0.27,-1.15,0.27,1.21
2.278,0.52,-0.75,0.05,0.91
2.288,0.63,-0.57,0.14,0.86
2.298,0.98,-0.19,0.08,1.00
2.308,0.28,-1.17,0.99,1.55
2.318,0.31,-0.06,0.28,0.43
2.328,0.44,1.55,1.25,2.04
2.338,-0.08,-0.95,2.03,2.24
2.347,-0.56,-1.51,1.14,1.97
2.358,-0.06,-0.45,0.96,1.06
2.367,0.21,-0.34,1.21,1.28
2.378,0.42,-0.59,1.23,1.42
2.387,0.66,-0.70,1.34,1.65
2.397,0.29,-1.57,0.85,1.81
2.407,1.58,-0.12,1.12,1.94
2.417,1.42,0.50,1.15,1.89
2.427,0.92,-0.26,0.98,1.37
2.437,0.87,-0.83,1.05,1.60
2.447,0.99,-1.00,1.21,1.86
2.457,0.72,-1.00,1.00,1.59
2.467,0.58,-0.80,0.87,1.32
2.477,0.68,-0.73,0.93,1.36
2.487,0.68,-0.62,0.90,1.29
2.497,0.88,-0.43,0.45,1.08
2.507,0.36,-1.29,1.68,2.15
2.517,1.06,-0.24,1.93,2.21
2.526,1.31,0.30,0.79,1.56
2.537,1.42,0.01,0.97,1.72
2.546,1.25,-0.31,1.05,1.66
2.557,0.76,-0.62,0.88,1.32
2.566,0.66,-0.82,1.57,1.89
2.576,0.69,-0.84,1.54,1.88
2.586,0.55,-0.47,1.29,1.47
2.596,0.57,-0.50,1.24,1.46
2.606,0.46,-0.16,1.17,1.27
2.616,0.39,0.06,0.99,1.07
2.626,1.27,1.22,0.87,1.97
2.636,1.96,1.25,0.76,2.44
2.646,2.14,-0.23,1.27,2.49
2.656,2.30,0.62,1.83,3.00
2.666,2.01,2.85,1.35,3.74
2.676,1.78,5.61,0.02,5.89
2.686,1.43,6.48,-0.54,6.66
2.696,-0.97,4.96,-1.02,5.15
2.706,-2.89,1.48,-0.33,3.26
2.716,-1.38,-1.01,0.16,1.72
2.726,-0.84,1.33,-0.24,1.60
2.736,0.85,5.59,-1.46,5.83
2.745,0.19,7.84,1.46,7.98
2.756,-1.20,6.98,4.11,8.19
2.765,-0.54,0.84,0.20,1.02
2.775,-1.41,-1.95,0.20,2.42
2.785,-0.01,-3.04,0.69,3.12
2.795,-2.32,-1.49,-2.62,3.80
2.805,-2.79,0.43,-0.15,2.83
2.815,-1.82,-0.23,1.00,2.09
2.825,-0.81,0.13,1.48,1.70
2.835,-0.16,2.19,2.10,3.04
2.845,0.45,4.13,1.73,4.50
2.855,-0.60,5.28,1.66,5.57
2.865,-2.22,5.99,0.27,6.40
2.875,-1.25,0.92,0.29,1.58
2.885,0.35,-3.81,0.41,3.84
2.895,1.05,-4.87,2.67,5.65
2.904,1.96,-6.12,4.66,7.94
2.915,1.89,-13.59,0.66,13.74
2.924,1.54,-20.38,-2.46,20.58
2.935,3.80,-14.16,-3.83,15.15
2.944,6.10,-6.70,-1.58,9.20
2.955,2.09,-5.94,1.67,6.52
2.964,0.35,-5.26,3.69,6.44
2.974,0.19,-4.60,-0.31,4.62
2.984,1.51,-5.02,0.95,5.33
2.994,1.60,-4.32,0.26,4.61
3.004,2.00,-3.98,0.14,4.46
3.014,1.60,-3.19,0.75,3.65
3.024,0.64,-2.32,1.10,2.65
3.034,0.31,-1.97,1.27,2.36
3.044,0.12,-1.52,1.30,2.00
3.054,0.15,-0.79,1.63,1.82
3.064,0.87,-0.30,4.15,4.26
3.074,1.55,-1.94,2.44,3.48
3.084,0.29,0.45,-2.30,2.36
3.094,-0.46,2.16,-2.81,3.57
3.103,0.23,0.84,-0.12,0.88
3.113,1.00,-0.37,1.91,2.19
3.123,1.12,-0.32,1.33,1.77
3.133,1.10,-0.38,0.84,1.44
3.143,0.87,-0.60,0.85,1.36
3.153,0.60,-0.57,0.73,1.11
3.163,0.42,-0.51,0.70,0.97
3.173,0.38,-0.39,0.43,0.69
3.183,0.37,-0.47,0.38,0.71
3.193,0.12,-0.49,0.63,0.81
3.203,-0.08,-0.57,1.01,1.17
3.214,-0.19,-0.64,1.09,1.28
3.223,-0.25,-0.65,1.05,1.26
3.233,-0.30,-0.65,1.08,1.30
3.243,-0.21,-0.65,1.09,1.29
3.253,0.02,-0.73,0.97,1.22
3.263,0.33,-0.94,0.92,1.36
3.273,0.63,-1.04,1.05,1.60
3.282,0.71,-1.09,1.33,1.87
3.293,0.72,-1.11,1.55,2.03
3.302,0.63,-1.07,1.68,2.09
3.312,0.44,-0.90,1.79,2.05
3.322,0.20,-0.72,1.80,1.95
3.332,0.08,-0.56,1.63,1.73
3.342,0.16,-0.41,1.38,1.45
3.352,0.44,-0.34,1.13,1.26
3.362,0.75,-0.37,0.97,1.28
3.372,1.02,-0.55,0.99,1.52
3.382,1.17,-0.74,1.13,1.79
3.392,1.17,-0.80,1.29,1.91
3.402,0.94,-0.66,1.34,1.76
3.412,0.47,-0.57,1.39,1.58
3.422,0.21,-0.46,1.38,1.47
3.432,0.09,-0.34,1.33,1.38
3.442,0.04,-0.32,1.39,1.43
3.452,0.22,-0.34,1.41,1.47
3.462,0.54,-0.47,1.43,1.60
3.472,0.88,-0.71,1.47,1.85
3.481,1.13,-0.95,1.44,2.06
3.491,1.24,-1.04,1.35,2.11
3.501,1.06,-1.08,1.38,2.05
3.511,0.78,-1.07,1.46,1.97
3.521,0.85,-0.97,1.29,1.82
3.531,1.04,-0.81,0.76,1.52
3.541,1.15,-0.81,0.40,1.47
3.551,1.51,-0.97,0.35,1.83
3.561,1.93,-1.13,0.20,2.24
3.571,2.28,-1.34,-0.06,2.64
3.581,2.43,-1.53,-0.17,2.88
3.591,2.42,-1.59,-0.11,2.90
3.601,2.17,-1.47,-0.06,2.63
3.611,1.56,-1.48,0.30,2.17
3.621,1.05,-1.48,0.80,1.98
3.631,0.69,-1.24,0.92,1.69
3.641,0.46,-0.93,0.86,1.35
3.651,0.49,-0.85,0.83,1.28
3.660,0.71,-1.17,0.98,1.68
3.670,1.14,-1.45,1.02,2.10
3.681,1.40,-1.63,1.09,2.41
3.690,1.74,-1.75,1.16,2.73
3.700,1.97,-1.77,1.08,2.86
3.710,2.08,-1.75,1.14,2.95
3.720,2.15,-1.58,1.20,2.93
3.730,2.16,-1.24,1.20,2.77
3.740,1.96,-0.93,1.20,2.48
3.750,1.63,-0.66,1.26,2.16
3.760,1.20,-0.41,1.35,1.85
3.770,0.71,-0.28,1.38,1.57
3.780,0.32,-0.19,1.31,1.36
3.790,0.03,-0.23,1.28,1.30
3.800,-0.21,-0.34,1.29,1.36
3.810,-0.25,-0.41,1.23,1.32
3.820,-0.21,-0.58,1.16,1.31
3.830,-0.18,-0.75,1.20,1.43
3.840,-0.20,-0.88,1.32,1.60
3.850,-0.21,-0.99,1.47,1.79
3.859,-0.11,-0.98,1.46,1.77
3.869,-0.12,-1.00,1.45,1.77
3.879,-0.09,-0.86,1.44,1.68
3.889,-0.16,-0.65,1.60,1.73
3.899,-0.16,-0.59,1.86,1.96
3.909,-0.00,-0.60,1.83,1.92
3.919,0.08,-0.64,1.72,1.84
3.929,0.26,-0.59,1.59,1.72
3.939,0.36,-0.70,1.60,1.78
3.949,0.56,-0.90,1.66,1.97
3.959,0.86,-1.08,1.61,2.12
3.969,1.06,-1.17,1.47,2.16
3.979,1.17,-1.22,1.47,2.24
3.989,1.13,-1.17,1.53,2.24
3.999,1.00,-1.07,1.57,2.15
4.009,0.76,-1.00,1.70,2.11
4.019,0.56,-0.89,1.80,2.08
4.029,0.53,-0.83,1.87,2.12
4.038,0.53,-0.80,1.80,2.04
4.049,0.60,-0.86,1.79,2.07
4.058,0.96,-1.02,1.73,2.22
4.068,1.31,-1.10,1.67,2.39
4.078,1.56,-1.24,1.74,2.64
4.088,1.76,-1.31,1.78,2.83
4.098,1.74,-1.35,1.80,2.84
4.108,1.75,-1.23,1.65,2.70
4.118,1.74,-1.05,1.44,2.49
4.128,1.72,-0.95,1.33,2.38
4.138,1.61,-0.81,1.39,2.28
4.148,1.38,-0.75,1.60,2.25
4.158,1.41,-0.66,1.63,2.25
4.168,1.47,-0.58,1.50,2.18
4.178,1.55,-0.54,1.31,2.10
4.188,1.64,-0.73,1.23,2.17
4.198,1.99,-0.91,1.14,2.47
4.208,2.07,-0.97,1.08,2.53
4.218,1.95,-1.13,1.21,2.55
4.227,1.64,-1.21,1.40,2.47
4.237,1.36,-1.21,1.46,2.33
4.247,1.29,-0.94,1.29,2.05
4.257,0.97,-0.88,1.38,1.90
4.267,0.94,-0.96,1.42,1.95
4.277,1.13,-1.01,1.31,2.00
4.287,1.34,-1.18,1.16,2.13
4.297,1.49,-1.28,1.14,2.27
4.307,1.40,-1.25,1.33,2.30
4.317,1.16,-1.15,1.49,2.21
4.327,1.03,-1.05,1.49,2.09
4.337,1.18,-0.79,1.17,1.84
4.347,1.10,-0.66,0.91,1.57
4.357,1.09,-0.79,0.95,1.65
4.367,1.35,-0.75,0.80,1.74
4.377,1.45,-0.82,0.69,1.80
4.387,1.45,-0.95,0.73,1.88
4.397,1.41,-0.98,0.92,1.95
4.407,1.20,-0.83,1.14,1.85
4.416,0.80,-0.71,1.31,1.70
4.427,0.52,-0.67,1.44,1.66
4.436,0.42,-0.52,1.32,1.47
4.446,0.17,-0.57,1.30,1.43
4.456,0.16,-0.66,1.34,1.50
4.466,0.32,-0.71,1.30,1.51
4.476,0.35,-0.75,1.26,1.50
4.486,0.42,-0.70,1.24,1.49
4.496,0.45,-0.64,1.32,1.54
4.506,0.42,-0.60,1.31,1.50
4.516,0.43,-0.54,1.29,1.46
4.526,0.59,-0.42,1.18,1.38
4.536,0.65,-0.36,1.04,1.28
4.546,0.63,-0.37,1.07,1.30
4.556,0.57,-0.38,1.35,1.51
4.566,0.52,-0.28,1.45,1.57
4.576,0.49,-0.08,1.31,1.40
4.586,0.41,0.02,1.30,1.36
4.596,0.43,0.06,1.25,1.32
4.606,0.58,0.12,1.11,1.26
4.615,0.78,0.04,1.01,1.27
4.625,0.88,-0.31,1.03,1.39
4.635,1.02,-0.49,1.06,1.55
4.645,1.18,-0.49,0.91,1.57
4.655,1.25,-0.44,0.77,1.53
4.665,1.12,-0.52,0.86,1.51
4.675,1.05,-0.55,0.94,1.51
4.685,0.87,-0.52,1.06,1.47
4.695,0.69,-0.53,1.18,1.47
4.705,0.48,-0.56,1.29,1.49
4.715,0.35,-0.44,1.51,1.61
4.725,0.24,-0.38,1.69,1.75
4.735,0.34,-0.39,1.65,1.73
4.745,0.48,-0.44,1.50,1.63
4.755,0.69,-0.53,1.39,1.64
4.765,0.99,-0.60,1.39,1.81
4.775,1.28,-0.74,1.33,1.99
4.785,1.65,-0.83,1.20,2.21
4.794,1.90,-0.86,1.18,2.40
4.804,2.04,-0.78,1.19,2.48
4.814,1.92,-0.62,1.36,2.43
4.824,1.67,-0.49,1.56,2.34
4.834,1.31,-0.46,1.77,2.25
4.844,1.05,-0.44,1.95,2.25
4.854,0.83,-0.36,1.99,2.19
4.864,0.79,-0.28,1.76,1.95
4.874,1.09,-0.26,1.28,1.70
4.884,1.41,-0.51,0.83,1.71
4.894,1.88,-0.76,0.50,2.09
4.904,2.16,-1.01,0.63,2.46
4.914,2.26,-1.13,0.97,2.70
4.924,2.03,-1.02,1.26,2.60
4.934,1.50,-0.67,1.65,2.33
4.944,1.02,-0.46,1.84,2.15
4.954,0.99,-0.32,1.60,1.91
4.964,1.02,-0.12,1.14,1.53
4.973,1.20,-0.13,0.69,1.39
4.984,1.49,-0.37,0.55,1.64
4.993,1.68,-0.65,0.77,1.96
5.003,1.89,-0.73,0.90,2.22
5.013,1.80,-0.72,0.88,2.13
5.023,1.62,-0.60,0.77,1.89
5.033,1.39,-0.50,0.68,1.63
5.043,1.19,-0.52,0.62,1.44
5.053,1.13,-0.51,0.53,1.35
5.063,1.03,-0.45,0.59,1.27
5.073,0.89,-0.44,0.76,1.25
5.083,0.69,-0.40,0.91,1.21
5.093,0.44,-0.41,0.95,1.12
5.103,0.32,-0.27,0.81,0.91
5.113,0.26,-0.18,0.65,0.72
5.123,0.16,-0.19,0.59,0.64
5.133,0.09,-0.30,0.77,0.83
5.143,0.01,-0.40,1.02,1.10
5.152,-0.14,-0.33,1.19,1.24
5.163,-0.33,-0.26,1.36,1.42
5.172,-0.50,-0.15,1.49,1.58
5.183,-0.54,0.05,1.47,1.57
5.192,-0.60,0.16,1.47,1.59
5.202,-0.52,0.23,1.44,1.55
5.212,-0.41,0.32,1.35,1.45
5.222,-0.24,0.29,1.22,1.27
5.232,0.00,0.19,1.12,1.14
5.242,0.12,-0.01,1.12,1.13
5.252,0.24,-0.12,1.10,1.13
5.262,0.35,-0.13,1.03,1.10
5.272,0.42,-0.05,0.95,1.04
5.282,0.45,0.03,0.85,0.96
5.292,0.49,0.04,0.82,0.95
5.302,0.64,0.03,0.79,1.01
5.312,0.73,0.04,0.76,1.05
5.322,0.79,-0.02,0.80,1.13
5.331,0.78,-0.09,1.00,1.27
5.342,0.82,-0.19,1.11,1.39
5.351,0.99,-0.27,0.99,1.42
5.361,1.10,-0.35,0.83,1.42
5.371,1.16,-0.41,0.82,1.48
5.381,1.17,-0.43,0.89,1.53
5.391,1.22,-0.50,0.91,1.60
5.401,1.31,-0.53,0.80,1.63
5.411,1.42,-0.52,0.75,1.69
5.421,1.53,-0.44,0.76,1.77
5.431,1.52,-0.40,0.90,1.81
5.441,1.57,-0.33,1.05,1.92
5.451,1.49,-0.25,1.26,1.97
5.461,1.44,-0.14,1.42,2.03
5.471,1.43,-0.01,1.37,1.98
5.481,1.53,0.03,1.28,1.99
5.491,1.70,0.03,1.21,2.09
5.501,1.73,-0.02,1.24,2.13
5.511,1.73,-0.17,1.33,2.18
5.521,1.74,-0.24,1.37,2.23
5.531,1.74,-0.24,1.41,2.25
5.541,1.71,-0.12,1.36,2.19
5.550,1.68,-0.00,1.28,2.12
5.561,1.65,0.02,1.34,2.12
5.570,1.66,-0.00,1.43,2.19
5.581,1.62,-0.02,1.43,2.16
5.590,1.57,-0.02,1.45,2.14
5.600,1.49,0.05,1.45,2.08
5.610,1.46,0.16,1.26,1.94
5.620,1.42,0.14,1.15,1.83
5.630,1.36,0.10,1.18,1.80
5.640,1.24,0.08,1.34,1.82
5.650,1.05,0.17,1.42,1.77
5.660,0.91,0.23,1.28,1.59
5.670,0.84,0.26,0.99,1.32
5.680,0.80,0.24,0.85,1.19
5.690,0.78,0.17,0.81,1.14
5.700,0.78,0.12,0.83,1.15
5.710,0.80,0.17,0.77,1.12
5.720,0.75,0.16,0.64,1.00
5.729,0.72,0.17,0.51,0.90
5.740,0.62,0.17,0.47,0.80
5.749,0.52,0.15,0.45,0.70
5.760,0.45,0.15,0.48,0.67
5.769,0.36,0.20,0.44,0.60
5.779,0.20,0.21,0.43,0.52
5.789,0.06,0.21,0.44,0.50
5.799,-0.04,0.24,0.43,0.49
5.809,-0.13,0.23,0.41,0.49
5.819,-0.15,0.23,0.42,0.51
5.829,-0.14,0.22,0.43,0.50
5.839,-0.06,0.24,0.42,0.49
5.849,-0.03,0.25,0.42,0.49
5.859,0.04,0.22,0.52,0.56
5.869,0.13,0.21,0.55,0.60
5.879,0.21,0.24,0.53,0.62
5.889,0.27,0.36,0.59,0.74
5.899,0.29,0.45,0.66,0.85
5.909,0.42,0.40,0.65,0.87
5.919,0.56,0.38,0.53,0.86
5.928,0.66,0.33,0.40,0.84
5.938,0.62,0.28,0.49,0.84
5.948,0.63,0.17,0.66,0.93
5.958,0.73,0.09,0.59,0.94
5.968,0.84,-0.01,0.42,0.94
5.978,0.86,-0.03,0.24,0.89
5.988,0.77,-0.03,0.24,0.81
5.998,0.60,-0.08,0.47,0.76
6.008,0.41,-0.09,0.60,0.73
6.018,0.36,0.00,0.49,0.61
6.028,0.33,0.18,0.46,0.60
6.038,0.20,0.26,0.57,0.66
6.048,0.18,0.19,0.70,0.75
6.058,0.32,0.14,0.54,0.64
6.068,0.71,0.16,0.19,0.75
6.078,0.98,0.09,-0.00,0.98
6.088,1.08,-0.06,0.15,1.10
6.098,1.08,-0.17,0.44,1.18
6.107,1.13,-0.10,0.66,1.31
6.118,1.01,0.10,0.71,1.24
6.127,0.79,0.38,0.69,1.12
6.137,0.56,0.53,0.63,1.00
6.147,0.52,0.50,0.53,0.89
6.157,0.61,0.35,0.46,0.85
6.167,0.72,0.18,0.59,0.95
6.177,0.62,0.11,0.86,1.07
6.187,0.49,0.02,1.13,1.23
6.197,0.29,-0.08,1.31,1.34
6.207,0.18,-0.09,1.40,1.41
6.217,0.14,-0.03,1.38,1.39
6.227,0.16,0.06,1.40,1.41
6.237,0.23,0.09,1.41,1.43
6.247,0.41,0.19,1.30,1.38
6.257,0.60,0.17,1.18,1.34
6.267,0.87,0.18,1.15,1.45
6.277,1.00,0.24,1.22,1.59
6.286,1.08,0.36,1.15,1.62
6.296,1.19,0.38,1.08,1.65
6.306,1.26,0.44,1.02,1.68
6.317,1.37,0.47,0.87,1.69
6.326,1.46,0.38,0.76,1.69
6.336,1.45,0.30,0.66,1.62
6.346,1.50,0.36,0.50,1.63
6.356,1.46,0.25,0.61,1.61
6.366,1.27,0.13,0.86,1.54
6.376,1.02,0.17,0.95,1.40
6.386,0.76,0.17,0.94,1.22
6.396,0.40,0.18,1.05,1.14
6.406,0.11,0.18,1.22,1.24
6.416,0.02,0.29,1.21,1.25
6.426,0.08,0.38,1.07,1.14
6.436,0.17,0.35,1.01,1.08
6.446,0.24,0.23,1.07,1.12
6.456,0.48,0.15,1.11,1.22
6.466,0.67,0.07,1.14,1.32
6.476,0.69,0.03,1.24,1.42
6.485,0.58,0.05,1.33,1.45
6.496,0.44,0.09,1.52,1.58
6.505,0.33,0.15,1.67,1.71
6.515,0.35,0.40,1.58,1.67
6.525,0.33,0.63,1.48,1.64
6.535,0.47,0.68,1.31,1.55
6.545,0.83,0.43,1.02,1.39
6.555,1.43,0.13,0.75,1.62
6.565,1.83,-0.06,0.61,1.93
6.575,2.17,-0.03,0.37,2.20
6.585,2.13,-0.05,0.27,2.15
6.595,1.85,-0.09,0.39,1.90
6.605,1.61,0.17,0.34,1.65
6.615,1.02,0.23,0.64,1.23
6.625,0.37,0.26,0.90,1.01
6.635,0.01,0.52,0.92,1.06
6.644,-0.20,0.73,0.76,1.07
6.655,-0.13,0.83,0.33,0.91
6.664,0.13,0.73,-0.01,0.74
6.675,0.56,0.37,-0.10,0.68
6.684,1.00,-0.00,-0.06,1.00
6.695,1.22,-0.22,0.10,1.25
6.704,1.11,-0.30,0.40,1.22
6.714,0.82,-0.09,0.63,1.04
6.724,0.28,0.14,0.83,0.89
6.734,-0.02,0.23,1.01,1.04
6.744,-0.23,0.43,1.27,1.36
6.754,-0.35,0.74,1.30,1.54
6.764,-0.31,0.78,1.38,1.61
6.774,0.07,0.57,1.40,1.51
6.784,0.57,0.28,1.21,1.37
6.794,1.13,0.09,0.98,1.50
6.804,1.76,-0.15,0.86,1.96
6.814,2.16,-0.32,0.81,2.33
6.824,2.35,-0.38,0.76,2.50
6.834,2.27,-0.37,0.79,2.43
6.844,2.08,-0.08,0.60,2.17
6.854,1.80,0.15,0.80,1.98
6.863,1.27,0.43,1.08,1.72
6.873,0.80,0.63,1.18,1.56
6.883,0.53,0.72,1.16,1.47
6.893,0.33,0.77,0.97,1.28
6.903,0.12,0.68,0.85,1.10
6.913,0.13,0.48,0.82,0.95
6.923,0.38,0.30,0.92,1.03
6.933,0.60,0.13,0.94,1.13
6.943,0.77,-0.07,1.03,1.29
6.953,0.93,-0.20,1.10,1.46
6.963,0.89,-0.14,1.27,1.56
6.973,0.80,0.11,1.37,1.59
6.983,0.79,0.37,1.26,1.53
6.993,0.85,0.56,1.16,1.54
7.003,0.97,0.54,1.13,1.58
7.013,1.11,0.38,1.07,1.58
7.023,1.31,0.25,0.98,1.65
7.033,1.49,0.22,0.90,1.75
7.042,1.59,0.18,0.86,1.81
7.053,1.50,0.18,0.82,1.72
7.062,1.33,0.08,0.91,1.61
7.072,1.06,-0.01,1.00,1.46
7.082,0.92,0.07,1.01,1.37
7.092,0.90,0.21,0.95,1.33
7.102,0.84,0.26,0.91,1.27
7.112,0.87,0.20,0.90,1.27
7.122,0.90,0.04,0.98,1.33
7.132,0.97,0.00,1.08,1.45
7.142,0.90,0.05,1.16,1.47
7.152,0.83,0.22,1.15,1.43
7.162,0.66,0.29,1.18,1.38
7.172,0.65,0.32,1.15,1.36
7.182,0.70,0.40,1.06,1.33
7.192,0.83,0.41,1.03,1.38
7.202,0.94,0.38,1.02,1.44
7.212,1.08,0.31,1.02,1.52
7.222,1.12,0.26,1.09,1.58
7.232,1.05,0.26,1.16,1.59
7.242,0.90,0.37,1.24,1.58
7.252,0.63,0.50,1.28,1.51
7.261,0.41,0.58,1.16,1.36
7.271,0.47,0.58,0.96,1.22
7.281,0.67,0.53,0.65,1.07
7.291,0.87,0.38,0.49,1.07
7.301,1.05,0.19,0.56,1.20
7.311,1.12,0.05,0.67,1.31
7.321,1.11,-0.05,0.74,1.34
7.331,0.99,-0.02,0.81,1.28
7.341,0.72,0.05,0.95,1.20
7.351,0.40,0.15,1.16,1.23
7.361,0.28,0.33,1.24,1.31
7.371,0.19,0.41,1.22,1.31
7.381,0.21,0.44,1.15,1.25
7.391,0.41,0.43,0.95,1.12
7.401,0.58,0.37,0.78,1.04
7.411,0.85,0.25,0.70,1.13
7.420,1.00,0.10,0.74,1.24
7.431,1.05,0.03,0.87,1.37
7.440,1.10,0.10,0.96,1.46
7.450,1.06,0.28,0.89,1.42
7.460,0.98,0.46,0.77,1.32
7.470,0.93,0.53,0.72,1.29
7.480,0.96,0.52,0.76,1.33
7.490,1.02,0.43,0.76,1.35
7.500,1.14,0.29,0.65,1.34
7.510,1.17,0.14,0.62,1.33
7.520,1.11,0.04,0.70,1.31
7.530,1.05,0.02,0.76,1.30
7.540,1.02,0.05,0.71,1.25
7.550,0.98,0.05,0.66,1.18
7.560,0.93,-0.01,0.73,1.18
7.570,1.00,-0.01,0.81,1.29
7.580,1.09,0.03,0.81,1.36
7.590,1.15,0.01,0.78,1.39
7.600,1.15,-0.03,0.88,1.45
7.610,1.15,-0.01,1.03,1.55
7.619,1.08,0.02,1.15,1.58
7.630,1.04,0.09,1.18,1.57
7.639,1.04,0.21,1.09,1.52
7.649,1.06,0.32,1.07,1.54
7.659,1.06,0.28,1.09,1.55
7.669,1.04,0.24,1.14,1.56
7.679,0.96,0.26,1.18,1.55
7.689,0.91,0.26,1.27,1.59
7.699,0.82,0.28,1.35,1.60
7.709,0.77,0.38,1.29,1.55
7.719,0.72,0.44,1.21,1.47
7.729,0.67,0.45,1.17,1.42
7.739,0.73,0.44,1.14,1.42
7.749,0.80,0.45,1.03,1.38
7.759,0.88,0.46,0.92,1.35
7.769,0.93,0.41,0.76,1.27
7.779,0.99,0.31,0.71,1.26
7.789,1.07,0.28,0.65,1.28
7.798,1.07,0.29,0.64,1.27
7.809,0.99,0.25,0.72,1.25
7.818,0.86,0.27,0.76,1.18
7.829,0.65,0.32,0.85,1.11
7.838,0.41,0.37,0.90,1.05
7.848,0.29,0.46,0.83,0.99
7.858,0.25,0.57,0.66,0.91
7.868,0.22,0.55,0.53,0.80
7.878,0.39,0.51,0.37,0.74
7.888,0.55,0.46,0.17,0.74
7.898,0.61,0.35,0.10,0.71
7.908,0.65,0.26,0.19,0.73
7.918,0.58,0.27,0.27,0.69
7.928,0.49,0.31,0.24,0.63
7.938,0.43,0.35,0.15,0.58
7.948,0.53,0.40,-0.06,0.67
7.958,0.64,0.36,-0.10,0.74
7.968,0.75,0.32,-0.03,0.81
7.978,0.70,0.25,0.03,0.74
7.988,0.48,0.19,0.12,0.53
7.998,0.17,0.13,0.28,0.35
8.008,-0.04,0.23,0.47,0.53
8.017,-0.08,0.39,0.46,0.61
8.027,-0.04,0.45,0.31,0.55
8.037,0.14,0.32,0.20,0.40
8.047,0.29,0.16,0.28,0.44
8.057,0.34,0.08,0.41,0.53
8.067,0.33,0.15,0.48,0.60
8.077,0.39,0.29,0.35,0.60
8.087,0.47,0.40,0.13,0.62
8.097,0.54,0.32,0.10,0.64
8.107,0.63,0.21,0.26,0.72
8.117,0.70,0.22,0.36,0.81
8.127,0.61,0.26,0.40,0.77
8.137,0.50,0.37,0.38,0.73
8.147,0.34,0.41,0.41,0.67
8.157,0.20,0.40,0.46,0.64
8.167,0.09,0.36,0.54,0.66
8.176,0.06,0.39,0.52,0.65
8.187,0.11,0.39,0.49,0.64
8.196,0.21,0.33,0.47,0.61
8.206,0.24,0.23,0.57,0.66
8.216,0.35,0.12,0.67,0.76
8.226,0.41,0.13,0.67,0.80
8.236,0.34,0.20,0.64,0.75
8.246,0.19,0.28,0.58,0.67
8.256,0.11,0.39,0.52,0.66
8.266,0.15,0.54,0.47,0.73
8.276,0.27,0.60,0.51,0.84
8.286,0.27,0.53,0.63,0.87
8.296,0.29,0.40,0.85,0.99
8.306,0.27,0.40,0.86,0.99
8.316,0.21,0.50,0.66,0.86
8.326,0.07,0.58,0.53,0.79
8.336,-0.17,0.58,0.53,0.81
8.346,-0.27,0.51,0.59,0.82
8.356,-0.12,0.47,0.56,0.74
8.365,0.07,0.52,0.46,0.70
8.375,0.12,0.54,0.34,0.65
8.386,0.21,0.46,0.13,0.52
8.395,0.49,0.39,-0.37,0.73
8.405,0.84,0.44,-0.99,1.37
8.415,0.95,0.35,-1.11,1.50
8.425,0.81,0.09,-0.59,1.01
8.435,0.53,-0.07,0.01,0.54
8.445,0.28,0.19,0.24,0.41
8.455,-0.04,0.52,0.45,0.69
8.465,-0.40,0.63,0.60,0.96
8.475,-0.70,0.60,0.60,1.10
8.485,-0.76,0.48,0.43,1.00
8.495,-0.44,0.43,0.03,0.61
8.505,-0.10,0.28,-0.16,0.34
8.515,0.11,0.16,0.06,0.20
8.525,0.20,0.06,0.11,0.24
8.535,0.45,-0.01,-0.28,0.53
8.545,0.67,0.00,-0.69,0.96
8.554,0.84,0.13,-0.77,1.15
8.565,0.94,0.30,-0.55,1.13
8.574,0.86,0.40,-0.18,0.96
8.584,0.77,0.48,0.11,0.91
8.594,0.59,0.64,0.26,0.90
8.604,0.25,0.81,0.27,0.89
8.614,-0.06,0.87,0.17,0.89
8.624,-0.31,0.87,0.01,0.92
8.634,-0.43,0.74,-0.07,0.86
8.644,-0.23,0.61,-0.16,0.67
8.654,-0.04,0.41,-0.11,0.43
8.664,0.16,0.22,-0.04,0.27
8.674,0.32,0.15,-0.04,0.35
8.684,0.30,0.14,0.09,0.34
8.694,0.07,0.17,0.37,0.42
8.704,-0.05,0.28,0.57,0.64
8.714,-0.01,0.45,0.42,0.61
8.724,-0.04,0.45,0.23,0.51
8.734,0.02,0.48,0.10,0.49
8.744,0.12,0.46,-0.01,0.48
8.753,0.24,0.37,-0.04,0.45
8.764,0.33,0.33,0.03,0.47
8.773,0.39,0.39,0.16,0.58
8.783,0.22,0.50,0.26,0.60
8.793,-0.08,0.51,0.35,0.63
8.803,-0.29,0.55,0.33,0.70
8.813,-0.32,0.61,0.20,0.72
8.823,-0.12,0.68,-0.03,0.69
8.833,-0.04,0.58,-0.11,0.59
8.843,0.10,0.36,-0.10,0.39
8.853,0.23,0.20,0.06,0.31
8.863,0.27,0.17,0.17,0.36
8.873,0.29,0.33,0.15,0.46
8.883,0.10,0.43,0.10,0.45
8.893,-0.01,0.50,0.00,0.50
8.903,0.04,0.53,-0.12,0.54
8.913,0.15,0.48,-0.20,0.55
8.923,0.24,0.46,-0.13,0.53
8.932,0.21,0.40,-0.02,0.46
8.943,0.25,0.41,-0.07,0.48
8.952,0.16,0.45,-0.17,0.51
8.962,-0.02,0.44,-0.07,0.45
8.972,-0.10,0.47,0.01,0.48
8.982,-0.17,0.49,0.03,0.52
8.992,-0.13,0.49,-0.03,0.51
9.002,-0.06,0.47,-0.09,0.48
9.012,0.05,0.48,-0.20,0.52
9.022,0.04,0.41,-0.13,0.44
9.032,0.02,0.36,-0.03,0.36
9.042,0.02,0.38,0.04,0.38
9.052,-0.13,0.39,0.10,0.42
9.062,-0.07,0.44,0.01,0.45
9.072,-0.11,0.46,0.06,0.47
9.082,-0.11,0.43,0.03,0.45
9.092,0.05,0.45,-0.03,0.45
9.102,0.11,0.36,-0.13,0.40
9.112,0.13,0.28,-0.16,0.35
9.122,0.11,0.27,-0.10,0.31
9.131,0.07,0.31,0.01,0.32
9.142,0.08,0.37,0.05,0.38
9.151,0.01,0.40,0.06,0.41
9.161,-0.16,0.33,0.14,0.39
9.171,-0.22,0.31,0.32,0.49
9.181,-0.22,0.36,0.35,0.55
9.191,-0.23,0.48,0.27,0.60
9.201,-0.24,0.48,0.14,0.56
9.211,-0.26,0.39,0.16,0.50
9.221,-0.26,0.27,0.21,0.43
9.231,-0.07,0.25,0.21,0.34
9.241,0.06,0.38,0.10,0.39
9.251,0.14,0.52,-0.12,0.55
9.261,0.19,0.55,-0.32,0.66
9.271,0.36,0.44,-0.40,0.70
9.281,0.55,0.36,-0.40,0.77
9.291,0.62,0.39,-0.31,0.79
9.301,0.45,0.48,-0.14,0.67
9.310,0.23,0.57,-0.11,0.62
9.321,-0.02,0.54,-0.17,0.57
9.330,-0.15,0.62,-0.22,0.67
9.340,-0.29,0.59,-0.09,0.66
9.350,-0.34,0.55,-0.02,0.65
9.360,-0.32,0.48,-0.09,0.58
9.370,-0.26,0.37,-0.15,0.48
9.380,-0.19,0.24,-0.18,0.35
9.390,-0.26,0.21,-0.06,0.34
9.400,-0.34,0.27,-0.02,0.43
9.410,-0.30,0.32,-0.09,0.44
9.420,-0.22,0.35,-0.12,0.43
9.430,-0.13,0.38,-0.13,0.42
9.440,-0.21,0.32,-0.03,0.38
9.450,-0.15,0.34,-0.02,0.37
9.460,-0.17,0.39,-0.03,0.43
9.470,-0.29,0.42,0.00,0.51
9.480,-0.40,0.40,0.04,0.57
9.490,-0.42,0.45,0.07,0.62
9.499,-0.38,0.44,-0.06,0.59
9.509,-0.14,0.45,-0.28,0.55
9.519,-0.01,0.38,-0.33,0.50
9.529,0.16,0.27,-0.30,0.44
9.539,0.37,0.26,-0.41,0.61
9.549,0.30,0.17,-0.38,0.51
9.559,0.25,0.18,-0.27,0.41
9.569,0.14,0.29,-0.09,0.33
9.579,-0.05,0.34,0.01,0.34
9.589,-0.20,0.39,0.11,0.45
9.599,-0.20,0.49,0.07,0.54
9.609,-0.23,0.53,-0.04,0.58
9.619,-0.22,0.41,-0.06,0.47
9.629,-0.14,0.26,-0.11,0.31
9.639,0.02,0.25,-0.15,0.29
9.649,0.05,0.22,-0.13,0.26
9.659,0.00,0.26,-0.08,0.27
9.669,-0.06,0.32,-0.01,0.33
9.679,-0.05,0.52,-0.06,0.53
9.689,-0.00,0.50,-0.11,0.51
9.699,-0.15,0.52,-0.11,0.55
9.708,-0.20,0.57,-0.13,0.62
9.718,-0.15,0.53,-0.07,0.56
9.728,-0.18,0.49,-0.05,0.52
9.738,-0.26,0.49,-0.02,0.56
9.748,-0.42,0.44,0.05,0.61
9.758,-0.49,0.36,0.02,0.61
9.768,-0.51,0.38,-0.06,0.64
9.778,-0.43,0.44,-0.12,0.62
9.788,-0.48,0.36,-0.10,0.60
9.798,-0.43,0.26,-0.14,0.52
9.808,-0.28,0.29,-0.21,0.45
9.818,-0.23,0.31,-0.37,0.53
9.828,-0.14,0.34,-0.47,0.60
9.838,-0.01,0.36,-0.59,0.69
9.848,0.04,0.27,-0.62,0.68
9.858,0.08,0.16,-0.54,0.57
9.868,0.05,0.12,-0.43,0.45
9.878,-0.02,0.21,-0.38,0.43
9.887,-0.11,0.30,-0.50,0.59
9.898,-0.18,0.34,-0.55,0.67
9.907,-0.29,0.27,-0.52,0.65
9.917,-0.35,0.15,-0.43,0.58
9.927,-0.37,0.06,-0.34,0.51
9.937,-0.44,0.03,-0.29,0.52
9.947,-0.41,-0.03,-0.25,0.48
9.957,-0.44,-0.06,-0.25,0.51
9.967,-0.52,-0.04,-0.22,0.57
9.977,-0.52,0.04,-0.21,0.56
9.987,-0.43,0.11,-0.21,0.50
9.997,-0.36,0.17,-0.16,0.43
10.007,-0.34,0.20,-0.11,0.42
10.017,-0.25,0.23,-0.12,0.36
10.027,-0.16,0.27,-0.22,0.38
10.037,-0.04,0.27,-0.25,0.37
10.047,-0.02,0.24,-0.17,0.30
10.057,-0.03,0.23,-0.10,0.25
10.067,-0.08,0.24,-0.06,0.26
10.077,-0.16,0.25,0.03,0.30
10.086,-0.22,0.26,0.12,0.36
10.096,-0.25,0.27,0.09,0.38
10.106,-0.29,0.26,0.01,0.38
10.117,-0.24,0.25,-0.00,0.34
10.126,-0.38,0.21,-0.08,0.44
10.136,-0.14,0.16,-0.26,0.34
10.146,0.09,0.10,-0.15,0.20
10.156,0.12,0.07,-0.12,0.18
10.166,0.13,0.06,-0.04,0.15
10.176,0.10,0.06,0.13,0.18
10.186,0.04,0.08,0.19,0.21
10.196,-0.00,0.14,0.10,0.17
10.206,-0.05,0.17,0.02,0.18
10.216,-0.03,0.16,-0.02,0.17
10.226,0.02,0.11,-0.15,0.18
10.236,0.07,-0.04,-0.25,0.27
10.246,0.27,0.03,-0.44,0.52
10.256,0.31,0.07,-0.62,0.70
10.265,0.24,-0.05,-0.48,0.55
10.275,0.28,-0.11,-0.46,0.55
10.285,0.29,-0.05,-0.43,0.52
10.295,0.14,-0.02,-0.37,0.40
10.305,-0.14,-0.06,-0.17,0.23
10.315,-0.33,-0.06,-0.11,0.35
10.325,-0.46,-0.06,-0.12,0.48
10.335,-0.47,-0.07,-0.19,0.51
10.345,-0.48,-0.10,-0.21,0.53
10.355,-0.48,-0.09,-0.17,0.52
10.365,-0.49,-0.11,-0.16,0.53
10.375,-0.48,-0.11,-0.22,0.54
10.385,-0.48,-0.08,-0.20,0.52
10.395,-0.51,0.01,-0.12,0.52
10.405,-0.45,0.05,-0.12,0.47
10.415,-0.44,0.03,-0.16,0.47
10.425,-0.30,0.04,-0.27,0.40
10.435,-0.22,0.06,-0.30,0.38
10.445,-0.20,0.06,-0.37,0.42
10.455,-0.17,0.08,-0.50,0.53
10.464,-0.17,0.05,-0.58,0.61
10.474,-0.11,0.04,-0.67,0.68
10.484,-0.15,0.03,-0.64,0.66
10.494,-0.25,-0.01,-0.50,0.56
10.504,-0.44,-0.08,-0.24,0.51
10.514,-0.57,-0.07,-0.17,0.60
10.524,-0.69,-0.02,-0.21,0.72
10.534,-0.68,0.01,-0.29,0.74
10.544,-0.71,-0.05,-0.22,0.75
10.554,-0.42,0.00,-0.37,0.56
10.564,-0.37,-0.02,-0.40,0.55
10.574,-0.27,-0.09,-0.35,0.45
10.584,-0.18,0.02,-0.34,0.38
10.594,-0.42,-0.12,-0.26,0.51
10.604,-0.24,-0.06,-0.26,0.36
10.614,-0.11,0.06,-0.38,0.40
10.624,0.05,0.16,-0.55,0.57
10.634,0.01,-0.00,-0.57,0.57
10.643,0.12,-0.09,-0.52,0.54
10.654,0.11,-0.09,-0.48,0.50
10.663,-0.07,-0.14,-0.35,0.39
10.673,-0.10,-0.00,-0.33,0.34
10.683,-0.35,-0.01,-0.16,0.38
10.693,-0.37,-0.05,-0.14,0.40
10.703,-0.40,-0.08,-0.07,0.41
10.713,-0.44,-0.17,0.00,0.47
10.723,-0.31,-0.11,-0.07,0.33
10.733,-0.47,-0.23,0.00,0.52
10.743,-0.32,-0.17,-0.03,0.36
10.753,-0.48,-0.16,0.19,0.54
10.763,-0.36,-0.10,0.23,0.44
10.773,-0.24,0.09,0.05,0.26
10.783,-0.28,0.13,-0.14,0.34
10.793,-0.14,0.06,-0.19,0.24
10.803,0.00,0.09,-0.21,0.23
10.813,0.04,0.03,-0.27,0.27
10.823,0.04,-0.09,-0.23,0.25
10.833,0.02,-0.04,-0.22,0.22
10.842,0.01,0.06,-0.44,0.44
10.853,-0.11,-0.04,-0.59,0.60
10.862,-0.13,-0.22,-0.54,0.60
10.872,-0.06,-0.21,-0.36,0.42
10.882,-0.27,-0.27,-0.14,0.41
10.892,-0.57,-0.34,0.17,0.68
10.902,-0.83,-0.21,0.33,0.92
10.912,-0.79,-0.03,0.05,0.79
10.922,-0.82,0.02,-0.23,0.85
10.932,-0.61,-0.07,-0.41,0.75
10.942,-0.24,-0.09,-0.58,0.64
10.952,-0.11,-0.16,-0.68,0.71
10.962,0.22,-0.08,-0.92,0.95
10.972,0.15,-0.05,-0.97,0.98
10.982,0.13,0.09,-1.00,1.01
10.992,-0.15,0.10,-0.79,0.81
11.002,-0.24,0.22,-0.46,0.56
11.012,-0.46,0.33,-0.14,0.58
11.022,-0.71,0.47,0.12,0.86
11.032,-0.88,0.55,0.20,1.05
11.042,-1.16,0.43,0.17,1.25
11.051,-1.33,0.27,0.16,1.37
11.061,-1.34,0.10,0.08,1.35
11.071,-1.06,-0.02,-0.12,1.07
11.081,-0.70,-0.06,-0.38,0.80
11.091,-0.54,-0.13,-0.49,0.74
11.101,-0.28,-0.20,-0.61,0.70
11.111,-0.02,-0.19,-0.65,0.68
11.121,0.13,-0.14,-0.56,0.59
11.131,-0.06,-0.12,-0.19,0.23
11.141,-0.27,-0.02,0.14,0.31
11.151,-0.42,-0.09,0.52,0.68
11.161,-0.71,0.03,0.32,0.78
11.171,-0.56,0.00,0.54,0.78
11.181,-0.66,-0.17,0.61,0.91
11.191,-0.35,-0.07,-0.06,0.36
11.201,0.07,-0.22,-0.34,0.41
11.211,0.32,-0.36,-0.75,0.89
11.220,0.91,-0.38,-1.36,1.68
11.231,1.43,-0.42,-1.38,2.03
11.240,1.53,-0.36,-1.33,2.06
11.250,1.63,-0.22,-1.16,2.01
11.260,1.60,0.01,-0.84,1.81
11.270,1.23,0.26,-0.46,1.34
11.280,0.81,0.43,-0.07,0.92
11.290,0.49,0.55,0.09,0.74
11.300,0.24,0.59,0.01,0.64
11.310,0.03,0.61,-0.18,0.64
11.320,-0.18,0.51,-0.14,0.56
11.330,-0.28,0.36,-0.07,0.46
11.340,-0.29,0.25,-0.08,0.39
11.350,-0.27,0.29,-0.02,0.40
11.360,-0.33,0.35,-0.02,0.49
11.370,-0.38,0.36,-0.09,0.53
11.380,-0.27,0.33,-0.14,0.45
11.390,-0.19,0.28,-0.17,0.37
11.399,-0.16,0.25,-0.12,0.32
11.410,-0.22,0.21,0.05,0.31
11.419,-0.37,0.23,0.17,0.47
11.429,-0.66,0.21,0.29,0.75
11.439,-0.82,0.24,0.26,0.90
11.449,-0.93,0.30,0.24,1.00
11.459,-0.93,0.29,0.12,0.98
11.469,-0.81,0.29,-0.06,0.86
11.479,-0.74,0.17,-0.19,0.79
11.489,-0.52,0.06,-0.28,0.59
11.499,-0.39,-0.01,-0.34,0.51
11.509,-0.36,-0.06,-0.43,0.56
11.519,-0.40,-0.09,-0.50,0.65
11.529,-0.44,-0.07,-0.50,0.66
11.539,-0.48,0.00,-0.36,0.59
11.549,-0.67,-0.06,-0.16,0.69
11.559,-0.49,0.01,-0.29,0.56
11.569,-0.51,0.05,-0.31,0.60
11.578,-0.61,-0.02,-0.15,0.63
11.589,-0.63,-0.11,0.10,0.65
11.599,-0.69,-0.11,0.26,0.75
11.609,-0.61,-0.01,0.15,0.63
11.618,-0.70,0.00,0.07,0.71
11.628,-0.69,0.02,0.07,0.70
11.638,-0.50,-0.02,0.06,0.51
11.648,-0.23,-0.07,-0.14,0.28
11.658,0.01,-0.06,-0.34,0.35
11.668,0.07,-0.04,-0.29,0.30
11.678,0.07,0.06,-0.07,0.12
11.688,-0.05,0.20,0.10,0.22
11.698,-0.11,0.31,0.06,0.33
11.708,-0.16,0.44,-0.08,0.48
11.718,-0.25,0.45,-0.16,0.54
11.728,-0.15,0.45,-0.27,0.55
11.738,0.05,0.43,-0.40,0.59
11.748,0.34,0.38,-0.62,0.80
11.758,0.44,0.30,-0.71,0.88
11.768,0.52,0.21,-0.80,0.97
11.778,0.36,0.07,-0.70,0.79
11.788,0.27,0.02,-0.58,0.64
11.798,0.26,0.14,-0.46,0.55
11.808,0.02,0.20,-0.38,0.43
11.817,-0.12,0.18,-0.37,0.43
11.827,-0.28,0.09,-0.37,0.47
11.837,-0.30,0.02,-0.40,0.50
11.847,-0.33,-0.01,-0.38,0.50
11.857,-0.53,-0.05,-0.20,0.56
11.867,-0.65,-0.10,-0.02,0.65
11.877,-0.98,-0.20,0.26,1.04
11.887,-1.12,-0.21,0.50,1.25
11.897,-1.16,-0.14,0.63,1.33
11.907,-1.26,-0.06,0.66,1.42
11.917,-1.12,0.07,0.36,1.18
11.927,-0.95,0.02,0.05,0.95
11.937,-0.35,-0.01,-0.50,0.61
11.947,0.05,-0.06,-0.87,0.87
11.957,0.39,-0.05,-1.10,1.17
11.967,0.56,0.01,-1.07,1.21
11.977,0.37,0.03,-0.83,0.91
11.987,0.24,0.12,-0.78,0.83
11.996,0.00,0.13,-0.67,0.69
12.006,-0.27,0.10,-0.48,0.56
12.016,-0.67,0.05,-0.19,0.70
12.026,-0.97,-0.02,-0.04,0.98
12.036,-1.02,-0.08,-0.13,1.03
12.046,-1.02,-0.15,-0.36,1.09
12.056,-1.05,-0.31,-0.46,1.19
12.066,-0.94,-0.43,-0.47,1.14
12.076,-0.57,-0.37,-0.60,0.90
12.086,-0.34,-0.29,-0.69,0.82
12.096,-0.19,-0.29,-0.67,0.75
12.106,-0.10,-0.22,-0.51,0.56
12.116,-0.22,-0.06,-0.27,0.35
12.126,-0.34,0.13,-0.23,0.43
12.136,-0.42,0.27,-0.35,0.61
12.146,-0.46,0.29,-0.35,0.65
12.156,-0.60,0.26,-0.27,0.71
12.166,-0.71,0.12,-0.15,0.73
12.175,-0.64,0.13,-0.13,0.67
12.185,-0.71,0.07,-0.13,0.72
12.195,-0.63,0.07,-0.24,0.68
12.205,-0.62,-0.06,-0.30,0.70
12.215,-0.52,-0.26,-0.31,0.66
12.225,-0.37,-0.43,-0.28,0.63
12.235,-0.37,-0.54,-0.18,0.68
12.245,-0.26,-0.48,-0.21,0.58
12.255,-0.32,-0.43,-0.19,0.57
12.265,-0.32,-0.38,-0.26,0.56
12.275,-0.31,-0.35,-0.30,0.55
12.285,-0.25,-0.34,-0.33,0.54
12.295,-0.14,-0.25,-0.36,0.46
12.305,-0.14,-0.22,-0.38,0.46
12.315,-0.07,-0.21,-0.43,0.49
12.325,-0.16,-0.25,-0.31,0.42
12.335,-0.15,-0.22,-0.16,0.31
12.345,-0.21,-0.10,-0.14,0.27
12.355,-0.25,-0.06,-0.16,0.30
12.365,-0.33,-0.18,-0.15,0.41
12.374,-0.20,-0.19,-0.20,0.33
12.384,-0.11,-0.11,-0.35,0.39
12.394,-0.24,-0.19,-0.29,0.42
12.404,-0.16,-0.21,-0.16,0.31
12.414,-0.16,-0.21,-0.17,0.31
12.424,-0.24,-0.22,-0.21,0.39
12.434,-0.33,-0.17,-0.12,0.39
12.444,-0.52,-0.16,0.06,0.55
12.454,-0.67,-0.19,0.14,0.71
12.464,-0.65,-0.17,0.06,0.67
12.474,-0.55,-0.09,-0.06,0.56
12.484,-0.42,-0.01,-0.24,0.49
12.494,-0.38,-0.16,-0.40,0.58
12.504,-0.04,-0.25,-0.63,0.68
12.514,0.07,-0.25,-0.67,0.72
12.524,0.03,-0.26,-0.52,0.58
12.534,-0.12,-0.23,-0.36,0.44
12.544,-0.38,-0.20,-0.23,0.49
12.553,-0.38,-0.14,-0.36,0.55
12.564,-0.38,-0.11,-0.45,0.59
12.573,-0.37,-0.15,-0.48,0.62
12.583,-0.33,-0.18,-0.47,0.60
12.593,-0.32,-0.31,-0.61,0.75
12.603,-0.23,-0.38,-0.73,0.86
12.613,-0.35,-0.37,-0.53,0.73
12.623,-0.53,-0.37,-0.22,0.68
12.633,-0.73,-0.40,0.03,0.84
12.643,-0.82,-0.32,0.10,0.88
12.653,-0.89,-0.29,0.11,0.94
12.663,-0.57,-0.18,-0.17,0.62
12.673,-0.43,-0.19,-0.30,0.56
12.683,-0.33,-0.37,-0.33,0.60
12.693,-0.16,-0.46,-0.33,0.59
12.703,-0.12,-0.37,-0.26,0.47
12.713,-0.14,-0.18,-0.26,0.35
12.723,-0.38,-0.18,-0.17,0.46
12.733,-0.25,-0.07,-0.20,0.32
12.743,-0.22,-0.11,-0.35,0.42
12.753,-0.17,-0.25,-0.41,0.51
12.763,-0.09,-0.25,-0.23,0.35
12.772,-0.14,-0.18,-0.23,0.32
12.783,-0.11,-0.26,-0.54,0.61
12.792,-0.06,-0.34,-0.59,0.68
12.802,-0.04,-0.35,-0.43,0.56
12.812,-0.07,-0.42,-0.32,0.53
12.822,-0.16,-0.43,-0.25,0.52
12.832,-0.25,-0.42,-0.20,0.53
12.842,-0.18,-0.30,-0.36,0.50
12.852,-0.37,-0.31,-0.25,0.54
12.862,-0.26,-0.30,-0.17,0.44
12.872,-0.37,-0.40,-0.10,0.55
12.882,-0.41,-0.41,-0.04,0.58
12.892,-0.41,-0.23,-0.05,0.47
12.902,-0.49,-0.18,-0.14,0.54
12.912,-0.42,-0.08,-0.17,0.46
12.922,-0.45,-0.11,-0.10,0.47
12.931,-0.41,-0.23,-0.19,0.51
12.942,-0.55,-0.25,-0.03,0.60
12.951,-0.60,-0.23,0.09,0.65
12.961,-0.66,-0.14,0.06,0.68
12.971,-0.67,-0.18,-0.09,0.70
12.981,-0.60,-0.22,-0.17,0.67
12.991,-0.61,-0.32,-0.08,0.69
13.001,-0.26,-0.21,-0.30,0.45
13.011,-0.21,-0.19,-0.52,0.59
13.021,-0.14,-0.33,-0.72,0.80
13.031,0.06,-0.40,-0.76,0.86
13.041,0.06,-0.48,-0.52,0.71
13.051,-0.02,-0.45,-0.43,0.62
13.061,-0.25,-0.45,-0.23,0.56
13.071,-0.46,-0.40,-0.03,0.61
13.081,-0.58,-0.32,0.07,0.66
13.091,-0.57,-0.26,0.01,0.63
13.101,-0.32,-0.20,-0.28,0.47
13.111,-0.21,-0.32,-0.34,0.51
13.121,-0.03,-0.50,-0.43,0.66
13.130,0.30,-0.52,-0.56,0.82
13.141,0.31,-0.52,-0.61,0.85
13.150,0.41,-0.43,-0.68,0.90
13.160,0.36,-0.33,-0.55,0.73
13.170,0.34,-0.22,-0.48,0.63
13.180,0.15,-0.23,-0.32,0.42
13.190,-0.00,-0.26,-0.10,0.28
13.200,-0.10,-0.08,-0.14,0.19
13.210,-0.28,-0.07,-0.22,0.36
13.220,-0.34,-0.14,-0.23,0.43
13.230,-0.42,-0.23,-0.13,0.49
13.240,-0.40,-0.20,-0.09,0.45
13.250,-0.39,-0.25,-0.20,0.50
13.260,-0.38,-0.28,-0.25,0.54
13.270,-0.48,-0.32,-0.08,0.59
13.280,-0.59,-0.35,0.04,0.69
13.290,-0.59,-0.27,-0.00,0.64
13.300,-0.53,-0.15,-0.09,0.56
13.309,-0.46,-0.14,-0.26,0.55
13.319,-0.32,-0.18,-0.41,0.55
13.329,-0.33,-0.31,-0.34,0.57
13.339,-0.22,-0.26,-0.24,0.42
13.349,-0.40,-0.20,-0.12,0.46
13.359,-0.49,-0.21,-0.20,0.57
13.369,-0.41,-0.16,-0.31,0.53
13.379,-0.53,-0.34,-0.18,0.66
13.389,-0.39,-0.35,-0.15,0.54
13.399,-0.55,-0.45,-0.03,0.71
13.409,-0.40,-0.43,-0.15,0.61
13.419,-0.42,-0.37,-0.19,0.59
13.429,-0.54,-0.44,-0.09,0.70
13.439,-0.31,-0.34,-0.15,0.48
13.449,-0.29,-0.28,-0.14,0.43
13.459,0.06,-0.21,-0.56,0.60
13.469,0.22,-0.22,-0.77,0.83
13.479,0.28,-0.31,-0.60,0.74
13.489,0.28,-0.29,-0.37,0.55
13.499,0.08,-0.24,-0.23,0.34
13.508,-0.16,-0.12,-0.15,0.25
13.518,-0.31,-0.07,-0.05,0.32
13.528,-0.33,-0.05,-0.07,0.34
13.538,-0.38,-0.11,-0.03,0.40
13.548,-0.26,-0.20,-0.11,0.35
13.558,-0.21,-0.27,-0.17,0.38
13.568,-0.19,-0.32,-0.17,0.41
13.578,-0.04,-0.24,-0.18,0.31
13.588,-0.04,-0.27,-0.27,0.38
13.598,0.01,-0.25,-0.35,0.44
13.608,-0.01,-0.30,-0.18,0.35
13.618,-0.05,-0.35,-0.01,0.35
13.628,-0.07,-0.21,0.10,0.24
13.638,-0.35,-0.18,0.11,0.41
13.648,-0.50,-0.27,0.07,0.57
13.658,-0.22,-0.04,-0.13,0.26
13.668,-0.30,-0.18,-0.25,0.43
13.678,-0.14,-0.27,-0.12,0.32
13.687,-0.20,-0.36,-0.01,0.41
13.698,-0.12,-0.23,-0.17,0.31
13.707,-0.28,-0.13,-0.26,0.41
13.717,-0.24,-0.13,-0.36,0.45
13.727,-0.13,-0.07,-0.29,0.33
13.737,-0.13,-0.27,-0.33,0.44
13.747,-0.05,-0.34,-0.34,0.48
13.757,-0.23,-0.31,-0.17,0.42
13.767,-0.49,-0.17,-0.05,0.52
13.777,-0.76,-0.12,0.07,0.77
13.787,-0.68,-0.00,-0.02,0.68
13.797,-0.58,0.07,-0.21,0.62
13.807,-0.44,-0.03,-0.42,0.61
13.817,-0.21,-0.21,-0.42,0.51
13.827,-0.14,-0.38,-0.24,0.47
13.837,0.04,-0.34,-0.29,0.45
13.847,-0.03,-0.26,-0.33,0.42
13.857,-0.07,-0.20,-0.45,0.50
13.867,-0.10,-0.22,-0.33,0.41
13.877,-0.16,-0.35,-0.05,0.39
13.887,-0.10,-0.36,0.03,0.37
13.896,-0.30,-0.39,0.08,0.50
13.907,-0.44,-0.41,0.24,0.64
13.916,-0.40,-0.30,0.21,0.54
13.926,-0.38,-0.34,0.11,0.52
13.936,-0.15,-0.40,-0.08,0.44
13.946,-0.00,-0.46,-0.15,0.48
13.956,0.01,-0.55,-0.09,0.55
13.966,0.14,-0.48,-0.10,0.51
13.976,0.10,-0.45,-0.07,0.46
13.986,0.22,-0.32,-0.13,0.41
13.996,0.24,-0.17,-0.26,0.40
14.006,0.36,-0.05,-0.43,0.56
14.016,0.56,-0.02,-0.52,0.76
14.026,0.64,-0.05,-0.52,0.83
14.036,0.43,-0.10,-0.39,0.59
14.046,0.02,-0.13,0.02,0.13
14.056,-0.41,0.03,0.36,0.55
14.066,-0.71,0.12,0.32,0.79
14.076,-0.71,0.16,0.08,0.73
14.085,-0.65,0.06,0.04,0.65
14.095,-0.52,-0.10,0.16,0.56
14.105,-0.39,-0.21,0.13,0.46
14.116,-0.46,-0.37,0.20,0.62
14.125,-0.28,-0.37,0.07,0.46
14.135,-0.32,-0.32,-0.01,0.45
14.145,-0.30,-0.30,-0.06,0.42
14.155,-0.22,-0.28,-0.07,0.36
14.165,-0.02,-0.26,-0.26,0.37
14.175,0.10,-0.27,-0.34,0.45
14.185,0.04,-0.33,-0.26,0.42
14.195,0.04,-0.25,-0.17,0.30
14.205,-0.23,-0.27,-0.08,0.36
14.215,-0.24,-0.28,-0.09,0.38
14.225,-0.35,-0.30,-0.06,0.46
14.235,-0.46,-0.30,-0.02,0.55
14.245,-0.30,-0.21,-0.25,0.44
14.255,-0.12,-0.21,-0.59,0.63
14.264,0.22,-0.26,-0.85,0.92
14.275,0.55,-0.33,-0.95,1.15
14.284,0.66,-0.40,-0.84,1.14
14.294,0.54,-0.41,-0.61,0.91
14.304,0.34,-0.25,-0.44,0.61
14.314,0.13,0.01,-0.41,0.43
14.324,-0.15,0.07,-0.32,0.37
14.334,-0.37,0.02,-0.17,0.41
14.344,-0.54,-0.08,0.01,0.54
14.354,-0.39,0.01,-0.02,0.39
14.364,-0.57,-0.03,-0.05,0.57
14.374,-0.52,-0.09,-0.09,0.53
14.384,-0.36,-0.04,-0.18,0.40
14.394,-0.22,-0.13,-0.21,0.34
14.404,0.01,-0.17,-0.22,0.28
14.414,-0.07,-0.31,-0.04,0.32
14.424,-0.22,-0.42,0.25,0.54
14.434,-0.38,-0.35,0.51,0.73
14.443,-0.60,-0.11,0.65,0.89
14.454,-0.63,0.04,0.51,0.81
14.464,-0.48,0.04,0.15,0.51
14.473,-0.09,-0.11,-0.27,0.30
14.483,0.33,-0.25,-0.54,0.68
14.493,0.68,-0.30,-0.68,1.01
14.503,0.77,-0.40,-0.46,0.98
14.514,0.59,-0.38,-0.14,0.71
14.523,0.31,-0.10,-0.00,0.33
14.533,0.02,0.07,-0.19,0.21
14.543,0.04,0.10,-0.27,0.30
14.553,-0.02,0.00,-0.11,0.11
14.563,0.06,-0.10,-0.02,0.11
14.573,0.17,-0.07,-0.21,0.28
14.583,0.16,-0.01,-0.48,0.50
14.593,0.17,0.01,-0.66,0.68
14.603,0.19,-0.03,-0.62,0.65
14.613,0.11,-0.16,-0.42,0.46
14.622,-0.08,-0.20,-0.11,0.24
14.633,-0.33,-0.03,0.18,0.38
14.642,-0.64,0.12,0.31,0.72
14.653,-0.80,0.19,0.30,0.87
14.662,-0.72,0.19,0.19,0.77
14.673,-0.64,0.03,0.10,0.65
14.682,-0.27,-0.05,-0.04,0.28
14.692,-0.31,-0.11,0.01,0.32
14.702,-0.25,-0.12,-0.16,0.32
14.712,-0.24,-0.07,-0.36,0.44
14.722,-0.31,-0.08,-0.29,0.43
14.732,-0.15,-0.02,-0.28,0.32
14.742,-0.18,-0.03,-0.22,0.29
14.752,-0.12,-0.04,-0.27,0.30
14.762,-0.08,-0.12,-0.39,0.42
14.772,-0.11,-0.25,-0.44,0.52
14.782,-0.17,-0.34,-0.29,0.48
14.792,-0.23,-0.30,-0.11,0.39
14.802,-0.33,-0.25,0.00,0.41
14.812,-0.47,-0.24,0.10,0.53
14.822,-0.47,-0.25,0.08,0.54
14.832,-0.49,-0.30,0.08,0.58
14.841,-0.32,-0.24,0.03,0.40
14.851,-0.31,-0.21,0.15,0.40
14.861,-0.19,-0.23,0.31,0.43
14.871,-0.15,-0.07,-0.19,0.26
14.881,-0.10,-0.10,-0.00,0.14
14.891,-0.03,0.00,-0.14,0.15
14.901,0.07,0.07,-0.14,0.17
14.911,-0.00,0.09,-0.04,0.09
14.921,-0.07,0.12,-0.06,0.15
14.931,-0.08,0.18,-0.19,0.27
14.941,-0.13,0.17,-0.21,0.30
14.951,-0.13,0.12,-0.19,0.26
14.961,-0.10,0.02,-0.24,0.26
14.971,-0.20,-0.11,-0.09,0.25
14.981,-0.14,-0.08,0.03,0.16
14.991,-0.15,0.01,0.02,0.16
15.001,-0.12,-0.03,-0.24,0.27
15.011,-0.04,-0.13,-0.41,0.43
15.020,-0.01,-0.22,-0.37,0.43
15.031,-0.04,-0.27,-0.33,0.43
15.041,-0.15,-0.28,-0.26,0.41
15.051,-0.18,-0.25,-0.28,0.41
15.060,-0.32,-0.23,-0.16,0.43
15.070,-0.35,-0.19,-0.10,0.41
15.080,-0.37,-0.15,-0.03,0.39
15.090,-0.41,-0.14,0.06,0.44
15.100,-0.32,-0.09,-0.03,0.33
15.110,-0.28,-0.05,-0.19,0.34
15.120,-0.04,-0.01,-0.44,0.44
15.130,0.03,-0.08,-0.59,0.59
15.140,0.17,-0.26,-0.67,0.73
15.150,0.16,-0.33,-0.47,0.60
15.160,0.03,-0.25,-0.31,0.39
15.170,-0.19,-0.13,-0.31,0.39
15.180,-0.44,-0.12,-0.25,0.53
15.190,-0.37,-0.08,-0.32,0.49
15.200,-0.43,-0.15,-0.32,0.56
15.210,-0.28,-0.23,-0.26,0.45
15.219,-0.28,-0.24,-0.15,0.40
15.230,-0.28,-0.19,-0.26,0.43
15.239,-0.24,-0.29,-0.52,0.64
15.249,-0.18,-0.36,-0.51,0.65
15.259,-0.15,-0.35,-0.39,0.55
15.269,-0.28,-0.36,-0.23,0.52
15.279,-0.38,-0.25,-0.11,0.47
15.289,-0.42,-0.09,-0.14,0.46
15.299,-0.30,0.07,-0.35,0.47
15.309,-0.07,0.20,-0.63,0.66
15.319,-0.11,0.04,-0.58,0.59
15.329,-0.13,-0.10,-0.26,0.31
15.339,-0.45,-0.17,0.09,0.49
15.349,-0.77,-0.11,0.26,0.82
15.359,-1.02,-0.02,0.43,1.10
15.369,-1.11,0.07,0.50,1.22
15.379,-1.01,0.11,0.32,1.07
15.389,-0.82,0.04,0.20,0.85
15.399,-0.44,-0.20,0.04,0.48
15.409,-0.10,-0.39,-0.13,0.43
15.418,0.12,-0.42,-0.22,0.48
15.429,0.05,-0.52,-0.24,0.57
15.438,-0.01,-0.62,-0.10,0.63
15.448,0.05,-0.55,-0.08,0.56
15.458,0.05,-0.44,-0.08,0.45
15.468,0.23,-0.36,-0.24,0.49
15.478,0.28,-0.54,-0.26,0.66
15.488,0.41,-0.68,-0.15,0.80
15.498,0.44,-0.69,-0.04,0.82
15.508,0.14,-0.69,0.12,0.71
15.518,-0.02,-0.55,0.05,0.55
15.528,-0.28,-0.58,0.19,0.67
15.538,-0.19,-0.54,0.24,0.62
15.548,0.11,-0.46,-0.11,0.49
15.558,0.39,-0.46,-0.56,0.82
15.568,0.62,-0.45,-0.78,1.10
15.578,0.90,-0.50,-0.63,1.20
15.588,1.01,-0.51,-0.53,1.25
15.597,0.89,-0.29,-0.46,1.04
15.608,0.64,-0.03,-0.49,0.81
15.617,0.26,0.08,-0.35,0.44
15.627,0.11,0.11,-0.36,0.39
15.637,0.04,0.05,-0.18,0.19
15.647,-0.21,-0.02,0.13,0.25
15.657,-0.58,-0.13,0.45,0.74
15.667,-0.99,-0.27,0.74,1.26
15.677,-1.21,-0.28,0.86,1.51
15.687,-1.46,-0.20,0.93,1.74
15.697,-1.51,-0.19,0.79,1.71
15.707,-1.35,-0.27,0.49,1.47
15.717,-1.08,-0.45,0.11,1.18
15.727,-0.62,-0.53,-0.25,0.85
15.737,-0.22,-0.47,-0.42,0.67
15.747,0.07,-0.49,-0.56,0.75
15.757,0.22,-0.53,-0.69,0.90
15.767,0.38,-0.47,-0.66,0.89
15.777,0.35,-0.39,-0.40,0.67
15.787,0.26,-0.30,-0.19,0.44
15.796,0.28,-0.21,-0.33,0.48
15.806,0.23,-0.22,-0.62,0.70
15.816,0.25,-0.30,-0.87,0.95
15.826,0.23,-0.48,-0.84,0.99
15.836,0.17,-0.65,-0.66,0.94
15.846,0.05,-0.71,-0.35,0.79
15.856,-0.24,-0.80,0.01,0.83
15.866,-0.31,-0.70,0.08,0.78
15.876,-0.30,-0.58,0.08,0.66
15.886,-0.27,-0.51,0.15,0.60
15.896,-0.13,-0.51,0.12,0.55
15.906,0.10,-0.49,-0.09,0.51
15.916,0.34,-0.47,-0.34,0.67
15.926,0.56,-0.43,-0.47,0.85
15.936,0.70,-0.33,-0.42,0.88
15.946,0.64,-0.18,-0.30,0.73
15.956,0.64,-0.00,-0.21,0.68
15.966,0.53,0.16,-0.08,0.56
15.975,0.45,0.26,0.10,0.53
15.986,0.20,0.31,0.30,0.48
15.995,-0.01,0.26,0.31,0.40
16.005,-0.26,0.16,0.24,0.38
16.015,-0.37,0.19,0.21,0.46
16.025,-0.49,0.08,0.18,0.53
16.035,-0.47,-0.02,0.18,0.50
16.045,-0.46,-0.16,0.22,0.53
16.055,-0.51,-0.26,0.29,0.64
16.065,-0.60,-0.26,0.35,0.74
16.075,-0.65,-0.29,0.35,0.79
16.085,-0.65,-0.23,0.33,0.76
16.095,-0.66,-0.20,0.32,0.76
16.105,-0.64,-0.21,0.21,0.71
16.115,-0.52,-0.17,0.06,0.55
16.125,-0.50,-0.15,-0.07,0.53
16.135,-0.45,-0.10,-0.17,0.49
16.145,-0.44,-0.14,-0.25,0.53
16.155,-0.42,-0.19,-0.31,0.55
16.165,-0.31,-0.19,-0.35,0.51
16.174,-0.27,-0.16,-0.35,0.47
16.185,-0.31,-0.16,-0.28,0.45
16.194,-0.32,-0.20,-0.21,0.43
16.204,-0.33,-0.29,-0.21,0.49
16.214,-0.25,-0.39,-0.29,0.55
16.224,-0.29,-0.54,-0.21,0.65
16.234,-0.31,-0.60,-0.04,0.68
16.244,-0.28,-0.60,0.07,0.66
16.254,-0.32,-0.46,-0.22,0.60
16.264,-0.29,-0.44,-0.06,0.53
16.274,-0.36,-0.55,0.18,0.68
16.284,-0.21,-0.44,0.07,0.49
16.294,-0.07,-0.34,-0.06,0.35
16.304,0.07,-0.33,0.02,0.34
16.314,0.17,-0.34,-0.21,0.43
16.324,0.37,-0.33,-0.02,0.49
16.334,0.40,-0.21,-0.07,0.46
16.344,0.50,-0.07,-0.19,0.54
16.354,0.49,0.04,-0.19,0.52
16.364,0.39,0.07,-0.13,0.42
16.373,0.39,0.12,-0.10,0.42
16.384,0.38,0.18,-0.07,0.43
16.393,0.27,0.16,0.05,0.32
16.403,0.06,0.11,0.25,0.28
16.413,-0.14,0.04,0.38,0.40
16.423,-0.24,0.01,0.44,0.50
16.433,-0.28,0.06,0.46,0.54
16.443,-0.39,0.05,0.32,0.51
16.453,-0.29,0.06,0.10,0.31
16.463,-0.11,0.05,-0.05,0.14
16.473,0.20,0.04,-0.42,0.46
16.483,0.40,0.02,-0.53,0.66
16.493,0.40,-0.11,-0.54,0.68
16.503,0.46,-0.14,-0.41,0.63
16.513,0.31,-0.13,-0.18,0.38
16.523,0.10,-0.08,-0.07,0.14
16.533,-0.02,-0.01,-0.02,0.03
16.543,-0.24,-0.04,-0.00,0.24
16.553,-0.31,-0.10,-0.07,0.33
16.563,-0.38,-0.26,-0.05,0.47
16.572,-0.45,-0.41,-0.01,0.61
16.583,-0.55,-0.45,0.14,0.72
16.592,-0.63,-0.47,0.11,0.80
16.603,-0.61,-0.47,-0.06,0.77
16.612,-0.58,-0.45,-0.21,0.77
16.622,-0.41,-0.39,-0.32,0.65
16.632,-0.31,-0.41,-0.32,0.61
16.642,-0.18,-0.39,-0.37,0.57
16.652,-0.20,-0.27,-0.32,0.47
16.662,-0.39,-0.20,-0.12,0.46
16.672,-0.62,-0.14,-0.00,0.63
16.682,-0.83,-0.16,0.08,0.85
16.692,-0.90,-0.06,0.14,0.91
16.702,-1.01,0.02,0.22,1.04
16.712,-1.04,0.03,0.27,1.07
16.722,-1.09,-0.12,0.31,1.14
16.732,-0.84,-0.11,0.15,0.86
16.742,-0.68,-0.17,-0.09,0.71
16.752,-0.56,-0.23,-0.21,0.64
16.762,-0.46,-0.27,-0.22,0.58
16.771,-0.32,-0.32,-0.30,0.55
16.781,-0.16,-0.28,-0.45,0.55
16.791,-0.15,-0.26,-0.47,0.56
16.801,-0.10,-0.25,-0.44,0.51
16.811,-0.12,-0.26,-0.36,0.46
16.821,-0.11,-0.22,-0.30,0.39
16.831,-0.12,-0.10,-0.33,0.36
16.841,-0.18,-0.06,-0.46,0.50
16.851,-0.13,-0.10,-0.42,0.45
16.861,-0.04,-0.28,-0.57,0.64
16.871,0.27,-0.41,-0.78,0.92
16.881,0.43,-0.43,-0.81,1.01
16.891,0.40,-0.44,-0.81,1.00
16.901,0.34,-0.45,-0.69,0.89
16.911,0.30,-0.44,-0.65,0.84
16.921,0.21,-0.38,-0.60,0.74
16.931,-0.21,-0.57,-0.27,0.66
16.941,0.00,-0.40,-0.17,0.43
16.950,-0.10,-0.30,-0.30,0.43
16.960,-0.11,-0.37,-0.34,0.51
16.970,-0.03,-0.32,-0.25,0.40
16.980,-0.27,-0.35,-0.16,0.47
16.990,-0.11,-0.29,-0.32,0.45
17.000,0.06,-0.20,-0.45,0.50
17.010,0.10,-0.20,-0.48,0.53
17.020,0.03,-0.27,-0.33,0.43
17.030,-0.07,-0.32,-0.28,0.43
17.040,-0.19,-0.34,-0.34,0.52
17.050,-0.28,-0.29,-0.36,0.54
17.060,-0.46,-0.28,-0.12,0.55
17.070,-0.61,-0.34,0.18,0.72
17.080,-0.64,-0.36,0.22,0.77
17.090,-0.61,-0.37,0.15,0.73
17.100,-0.46,-0.41,-0.06,0.62
17.110,-0.23,-0.44,-0.21,0.54
17.120,-0.07,-0.51,-0.30,0.59
17.130,0.04,-0.67,-0.43,0.80
17.140,0.08,-0.80,-0.41,0.90
17.150,0.02,-0.79,-0.11,0.80
17.160,-0.14,-0.61,0.08,0.63
17.169,-0.47,-0.56,0.20,0.76
17.179,-0.57,-0.50,0.21,0.79
17.189,-0.48,-0.35,0.13,0.61
17.199,-0.46,-0.29,0.01,0.54
17.209,-0.33,-0.26,-0.10,0.43
17.219,-0.27,-0.36,-0.04,0.45
17.229,-0.12,-0.43,-0.04,0.45
17.239,0.02,-0.35,-0.19,0.40
17.249,-0.07,-0.31,-0.17,0.36
17.259,-0.05,-0.21,-0.17,0.27
17.269,-0.00,-0.10,-0.42,0.43
17.279,0.16,-0.06,-0.69,0.71
17.289,0.23,-0.25,-0.71,0.79
17.299,0.05,-0.49,-0.49,0.69
17.309,-0.20,-0.50,-0.06,0.55
17.319,-0.56,-0.34,0.19,0.68
17.328,-0.95,-0.30,0.15,1.00
17.339,-0.96,-0.32,0.02,1.01
17.348,-0.89,-0.46,-0.13,1.01
17.358,-0.82,-0.64,-0.18,1.06
17.368,-0.85,-0.77,-0.15,1.16
17.378,-0.80,-0.74,-0.19,1.10
17.388,-0.47,-0.67,-0.43,0.92
17.398,-0.16,-0.64,-0.71,0.97
17.408,0.14,-0.61,-0.88,1.08
17.418,0.26,-0.66,-0.82,1.09
17.428,0.25,-0.62,-0.67,0.94
17.438,0.18,-0.50,-0.62,0.81
17.448,0.05,-0.40,-0.70,0.80
17.458,-0.01,-0.29,-0.77,0.82
17.468,-0.09,-0.31,-0.62,0.70
17.478,-0.36,-0.47,-0.30,0.67
17.488,-0.52,-0.61,-0.03,0.80
17.498,-0.67,-0.62,0.20,0.93
17.508,-0.92,-0.61,0.41,1.17
17.518,-1.16,-0.57,0.67,1.46
17.527,-1.35,-0.58,0.89,1.72
17.538,-1.22,-0.54,0.81,1.57
17.547,-0.95,-0.63,0.68,1.33
17.557,-0.75,-0.57,-0.07,0.95
17.567,-0.48,-0.73,0.24,0.90
17.577,-0.25,-0.74,0.18,0.80
17.587,-0.02,-0.67,0.19,0.70
17.597,0.18,-0.52,0.17,0.57
17.607,0.27,-0.31,0.14,0.44
17.617,0.40,-0.12,0.00,0.42
17.627,0.58,-0.08,-0.22,0.63
17.637,0.89,-0.13,-0.43,0.99
17.647,1.07,-0.16,-0.69,1.29
17.657,1.16,-0.27,-0.90,1.49
17.667,1.03,-0.45,-0.96,1.48
17.677,0.80,-0.68,-0.81,1.32
17.687,0.46,-0.73,-0.55,1.02
17.697,0.09,-0.71,-0.23,0.76
17.707,-0.04,-0.62,-0.18,0.65
17.717,-0.14,-0.61,-0.31,0.70
17.727,0.12,-0.66,-0.55,0.87
17.736,0.36,-0.78,-0.76,1.15
17.746,0.53,-0.89,-0.88,1.35
17.756,0.57,-0.87,-0.95,1.41
17.766,0.53,-0.74,-0.98,1.34
17.776,0.29,-0.56,-0.86,1.07
17.786,0.08,-0.55,-0.56,0.79
17.796,-0.13,-0.44,-0.26,0.53
17.806,-0.37,-0.31,-0.05,0.48
17.816,-0.59,-0.21,0.05,0.63
17.826,-0.89,-0.26,0.23,0.96
17.836,-1.05,-0.38,0.32,1.17
17.846,-1.10,-0.48,0.25,1.22
17.856,-0.92,-0.64,-0.07,1.13
17.866,-1.02,-0.73,-0.22,1.27
17.876,-0.64,-0.65,-0.16,0.92
17.886,-0.47,-0.69,-0.01,0.83
17.896,-0.96,-0.92,0.42,1.39
17.905,-1.25,-0.87,0.78,1.71
17.916,-1.16,-0.49,0.72,1.45
17.926,-1.03,-0.28,0.30,1.11
17.936,-0.64,-0.25,-0.01,0.69
17.945,-0.35,-0.40,-0.04,0.53
17.955,-0.17,-0.70,-0.04,0.72
17.965,-0.07,-0.90,-0.16,0.91
17.975,-0.01,-0.91,-0.22,0.94
17.985,0.00,-0.69,-0.38,0.78
17.995,-0.06,-0.56,-0.47,0.74
18.005,0.01,-0.59,-0.36,0.70
18.015,0.15,-0.64,-0.25,0.70
18.025,0.25,-0.64,-0.27,0.74
18.035,0.28,-0.62,-0.41,0.79
18.045,0.33,-0.57,-0.55,0.86
18.055,0.41,-0.54,-0.72,0.99
18.065,0.46,-0.45,-0.87,1.08
18.075,0.50,-0.38,-0.88,1.07
18.084,0.51,-0.32,-0.83,1.02
18.095,0.47,-0.25,-0.67,0.85
18.104,0.48,-0.14,-0.66,0.83
18.115,0.47,-0.10,-0.88,1.00
18.124,0.58,-0.14,-0.99,1.16
18.135,0.78,-0.06,-1.10,1.35
18.144,0.54,-0.34,-0.89,1.09
18.154,0.33,-0.47,-0.47,0.75
18.164,0.15,-0.40,-0.35,0.56
18.174,-0.01,-0.33,-0.42,0.54
18.184,0.07,-0.25,-0.72,0.77
18.194,0.13,-0.34,-0.84,0.92
18.204,0.26,-0.55,-0.77,0.98
18.214,0.12,-0.89,-0.29,0.94
18.224,-0.53,-1.24,0.58,1.47
18.234,-1.32,-1.17,1.31,2.20
18.244,-1.92,-0.82,1.53,2.59
18.254,-2.18,-0.57,1.45,2.68
18.264,-2.05,-0.26,1.13,2.36
18.274,-1.64,-0.21,0.70,1.79
18.284,-0.87,-0.53,0.16,1.03
18.294,-0.18,-0.70,-0.44,0.84
18.303,0.13,-0.76,-0.49,0.91
18.314,0.30,-0.81,-0.36,0.93
18.323,0.21,-0.83,-0.24,0.89
18.333,-0.03,-0.64,-0.11,0.65
18.343,-0.04,-0.29,0.03,0.30
18.353,-0.35,-0.26,0.46,0.63
18.363,-0.52,-0.38,0.55,0.85
18.373,-0.70,-0.57,0.39,0.98
18.383,-0.65,-0.64,0.03,0.91
18.393,-0.52,-0.64,-0.13,0.83
18.403,-0.35,-0.63,-0.24,0.76
18.413,-0.33,-0.75,-0.28,0.87
18.423,-0.52,-1.08,-0.19,1.22
18.433,-0.40,-1.08,-0.24,1.17
18.443,-0.30,-0.82,-0.24,0.91
18.453,-0.10,-0.63,-0.43,0.76
18.462,-0.04,-0.64,-0.45,0.78
18.473,0.15,-0.69,-0.36,0.79
18.482,0.26,-0.67,-0.19,0.74
18.493,0.20,-0.59,-0.12,0.63
18.502,0.15,-0.38,-0.21,0.46
18.512,-0.09,-0.26,-0.10,0.29
18.522,-0.09,-0.15,-0.27,0.32
18.532,-0.18,-0.23,-0.40,0.50
18.542,-0.03,-0.28,-0.49,0.56
18.552,0.10,-0.31,-0.48,0.58
18.562,0.00,-0.40,-0.36,0.54
18.572,-0.21,-0.47,-0.16,0.54
18.582,-0.18,-0.42,-0.32,0.55
18.592,-0.19,-0.38,-0.52,0.67
18.602,-0.23,-0.44,-0.51,0.71
18.612,-0.11,-0.50,-0.45,0.68
18.622,-0.20,-0.58,-0.37,0.72
18.632,-0.13,-0.60,-0.56,0.84
18.642,-0.20,-0.63,-0.62,0.90
18.652,-0.39,-0.65,-0.43,0.88
18.662,-0.43,-0.59,-0.38,0.83
18.672,-0.38,-0.60,-0.52,0.88
18.681,-0.34,-0.60,-0.55,0.88
18.691,-0.33,-0.60,-0.42,0.80
18.701,-0.19,-0.56,-0.42,0.72
18.711,-0.01,-0.51,-0.59,0.78
18.721,0.14,-0.54,-0.75,0.93
18.731,0.19,-0.64,-0.74,0.99
18.741,-0.03,-0.81,-0.34,0.88
18.751,-0.27,-0.87,-0.01,0.91
18.761,-0.36,-0.70,0.09,0.79
18.771,-0.60,-0.57,0.12,0.83
18.781,-0.59,-0.46,0.04,0.75
18.791,-0.56,-0.48,0.04,0.74
18.801,-0.29,-0.57,-0.17,0.66
18.811,0.12,-0.63,-0.44,0.77
18.821,0.20,-0.67,-0.40,0.80
18.831,0.38,-0.55,-0.40,0.77
18.841,0.28,-0.47,-0.45,0.71
18.851,0.30,-0.39,-0.58,0.76
18.861,0.53,-0.21,-0.76,0.95
18.871,0.54,-0.27,-0.66,0.89
18.880,0.44,-0.36,-0.38,0.69
18.891,0.08,-0.44,-0.16,0.48
18.900,-0.33,-0.43,-0.01,0.54
18.910,-0.50,-0.31,0.02,0.59
18.920,-0.66,-0.26,0.07,0.71
18.930,-0.88,-0.37,0.24,0.99
18.940,-1.08,-0.53,0.37,1.26
18.950,-0.81,-0.55,0.08,0.98
18.960,-0.47,-0.51,-0.21,0.73
18.970,-0.09,-0.45,-0.54,0.71
18.980,-0.03,-0.60,-0.50,0.78
18.990,-0.14,-0.80,-0.29,0.87
19.000,-0.05,-0.73,-0.17,0.75
19.010,-0.23,-0.51,0.08,0.57
19.020,-0.52,-0.33,0.27,0.67
19.030,-0.76,-0.35,0.35,0.91
19.039,-0.77,-0.37,0.31,0.91
19.050,-0.65,-0.31,0.11,0.73
19.059,-0.52,-0.35,-0.14,0.64
19.070,-0.54,-0.57,-0.17,0.80
19.079,-0.49,-0.74,-0.14,0.90
19.089,-0.33,-0.75,-0.26,0.86
19.099,-0.28,-0.75,-0.33,0.87
19.109,-0.17,-0.70,-0.27,0.77
19.119,-0.11,-0.69,-0.17,0.72
19.129,-0.09,-0.73,-0.19,0.76
19.139,-0.03,-0.67,-0.33,0.75
19.149,-0.03,-0.61,-0.26,0.67
19.159,-0.13,-0.55,-0.04,0.56
19.169,-0.28,-0.58,0.11,0.65
19.179,-0.37,-0.57,0.18,0.70
19.189,-0.55,-0.47,0.29,0.78
19.199,-0.58,-0.32,0.24,0.70
19.209,-0.56,-0.28,0.15,0.64
19.219,-0.28,-0.32,-0.12,0.44
19.229,-0.05,-0.41,-0.26,0.49
19.239,-0.01,-0.51,-0.11,0.53
19.249,-0.13,-0.59,0.20,0.63
19.258,-0.26,-0.59,0.30,0.71
19.269,-0.21,-0.41,0.05,0.47
19.278,-0.28,-0.36,-0.02,0.46
19.288,-0.23,-0.39,0.17,0.48
19.298,-0.19,-0.46,0.18,0.53
19.308,-0.13,-0.57,0.00,0.59
19.318,-0.08,-0.56,-0.15,0.58
19.328,-0.17,-0.54,-0.03,0.57
19.338,-0.20,-0.48,0.09,0.53
19.348,-0.27,-0.48,0.04,0.56
19.358,-0.23,-0.59,-0.08,0.64
19.368,0.01,-0.53,-0.21,0.58
19.378,0.04,-0.56,-0.25,0.62
19.388,0.08,-0.62,-0.25,0.68
19.398,-0.02,-0.65,-0.15,0.67
19.408,-0.12,-0.62,-0.08,0.64
19.418,-0.24,-0.50,-0.05,0.56
19.428,-0.22,-0.34,-0.11,0.42
19.437,-0.17,-0.23,-0.28,0.40
19.448,-0.02,-0.29,-0.54,0.61
19.457,0.26,-0.31,-0.78,0.88
19.467,0.36,-0.43,-0.80,0.98
19.477,0.42,-0.51,-0.71,0.97
19.487,0.16,-0.54,-0.43,0.71
19.497,-0.20,-0.50,-0.17,0.56
19.507,-0.62,-0.50,0.08,0.80
19.517,-0.78,-0.43,0.21,0.92
19.527,-0.78,-0.31,0.15,0.85
19.537,-0.70,-0.41,0.04,0.81
19.547,-0.51,-0.58,-0.06,0.77
19.557,-0.29,-0.68,-0.15,0.75
19.567,-0.12,-0.70,-0.27,0.76
19.577,-0.13,-0.76,-0.22,0.80
19.587,-0.08,-0.70,-0.14,0.72
19.597,-0.14,-0.56,-0.09,0.58
19.607,-0.10,-0.44,-0.20,0.49
19.617,-0.12,-0.34,-0.21,0.41
19.627,-0.21,-0.41,-0.14,0.48
19.637,-0.24,-0.49,-0.02,0.54
19.647,-0.20,-0.49,-0.05,0.53
19.656,-0.18,-0.35,-0.16,0.43
19.667,-0.28,-0.35,-0.16,0.47
19.676,-0.18,-0.37,-0.26,0.49
19.686,0.03,-0.41,-0.41,0.58
19.696,0.02,-0.54,-0.42,0.68
19.706,0.04,-0.52,-0.38,0.64
19.716,-0.23,-0.53,-0.22,0.62
19.726,-0.23,-0.44,-0.31,0.58
19.736,-0.27,-0.38,-0.37,0.60
19.746,-0.16,-0.42,-0.51,0.68
19.756,-0.20,-0.48,-0.28,0.60
19.766,-0.35,-0.47,0.03,0.59
19.776,-0.65,-0.45,0.23,0.83
19.786,-0.72,-0.32,0.12,0.80
19.796,-0.77,-0.21,0.02,0.80
19.806,-0.66,-0.20,-0.12,0.71
19.815,-0.42,-0.21,-0.31,0.56
19.826,-0.34,-0.40,-0.30,0.60
19.835,-0.13,-0.47,-0.35,0.60
19.846,-0.14,-0.51,-0.28,0.60
19.855,-0.27,-0.47,-0.21,0.58
19.865,-0.41,-0.42,-0.12,0.60
19.875,-0.42,-0.34,-0.22,0.59
19.885,-0.35,-0.30,-0.36,0.58
19.895,-0.30,-0.38,-0.38,0.61
19.905,-0.13,-0.43,-0.42,0.62
19.915,-0.07,-0.49,-0.50,0.70
19.925,-0.11,-0.57,-0.56,0.81
19.935,0.07,-0.47,-0.67,0.82
19.945,-0.12,-0.52,-0.51,0.73
19.955,-0.17,-0.54,-0.36,0.67
19.965,-0.38,-0.52,-0.14,0.66
19.975,-0.61,-0.49,-0.01,0.78
19.985,-0.63,-0.39,-0.01,0.74
19.995,-0.61,-0.23,-0.06,0.65
20.005,-0.45,-0.17,-0.32,0.58
20.015,-0.25,-0.27,-0.50,0.62
20.025,0.13,-0.30,-0.76,0.83
20.035,0.30,-0.33,-0.89,1.00
20.045,0.21,-0.45,-0.79,0.93
20.054,0.06,-0.45,-0.51,0.68
20.064,-0.33,-0.42,-0.11,0.55
20.074,-0.63,-0.39,0.13,0.75
20.084,-0.75,-0.28,0.25,0.83
20.094,-0.78,-0.17,0.18,0.82
20.104,-0.69,-0.28,-0.04,0.75
20.114,-0.45,-0.54,-0.16,0.72
20.124,-0.26,-0.73,-0.21,0.80
20.134,-0.20,-0.80,-0.20,0.85
20.144,-0.19,-0.77,-0.10,0.80
20.154,-0.23,-0.68,-0.01,0.72
20.164,-0.05,-0.52,-0.23,0.57
20.174,0.10,-0.48,-0.47,0.68
20.184,0.24,-0.55,-0.48,0.77
20.194,0.32,-0.63,-0.33,0.78
20.204,0.13,-0.69,-0.05,0.71
20.213,0.06,-0.60,-0.01,0.60
20.224,-0.13,-0.39,0.00,0.41
20.233,-0.22,-0.23,-0.04,0.32
20.243,-0.28,-0.28,0.03,0.40
20.253,-0.27,-0.33,0.16,0.46
20.263,-0.28,-0.40,0.16,0.51
20.273,-0.15,-0.39,-0.03,0.42
20.283,-0.06,-0.34,-0.25,0.43
20.293,-0.16,-0.38,-0.14,0.44
20.303,-0.30,-0.63,-0.06,0.70
20.313,0.15,-0.46,-0.36,0.60
20.323,0.09,-0.36,-0.46,0.59
20.333,-0.04,-0.57,-0.27,0.63
20.343,-0.34,-0.52,0.25,0.67
20.353,-0.70,-0.45,0.37,0.91
20.363,-0.73,-0.31,0.20,0.82
20.373,-0.68,-0.12,-0.06,0.69
20.383,-0.28,0.04,-0.44,0.52
20.393,-0.00,-0.03,-0.65,0.65
20.403,0.15,-0.33,-0.82,0.90
20.412,0.11,-0.50,-0.73,0.89
20.423,-0.15,-0.50,-0.57,0.77
20.432,-0.47,-0.39,-0.46,0.77
20.442,-0.65,-0.19,-0.37,0.77
20.452,-0.72,-0.05,-0.46,0.86
20.462,-0.72,-0.10,-0.52,0.89
20.472,-0.57,-0.19,-0.43,0.73
20.482,-0.60,-0.33,-0.23,0.72
20.492,-0.68,-0.44,-0.18,0.83
20.502,-0.75,-0.45,-0.30,0.93
20.512,-0.68,-0.38,-0.34,0.85
20.522,-0.61,-0.32,-0.31,0.75
20.532,-0.53,-0.40,-0.24,0.70
20.542,-0.43,-0.65,-0.14,0.79
20.552,-0.22,-0.81,-0.16,0.85
20.562,0.05,-0.78,-0.29,0.83
20.572,0.13,-0.79,-0.31,0.86
20.582,0.03,-0.88,-0.17,0.90
20.592,-0.20,-1.04,0.19,1.07
20.602,-0.33,-1.00,0.44,1.14
20.612,-0.37,-0.79,0.45,0.98
20.621,-0.45,-0.65,0.46,0.92
20.631,-0.23,-0.60,0.28,0.70
20.641,0.08,-0.66,0.08,0.67
20.651,0.28,-0.85,-0.01,0.90
20.661,0.75,-0.95,-0.32,1.25
20.671,1.14,-0.85,-0.69,1.58
20.681,1.15,-0.77,-0.75,1.57
20.691,1.02,-0.67,-0.31,1.26
20.701,0.61,-0.53,0.17,0.82
20.711,0.27,-0.30,0.43,0.60
20.721,0.07,0.04,0.59,0.60
20.731,-0.14,0.31,0.48,0.59
20.741,-0.21,0.49,-0.02,0.53
20.751,-0.03,0.48,-0.59,0.76
20.761,0.32,0.14,-0.86,0.92
20.771,0.42,-0.16,-0.64,0.79
20.781,0.11,-0.22,-0.17,0.30
20.790,-0.40,-0.08,0.19,0.45
20.801,-0.91,0.04,0.30,0.96
20.810,-1.25,0.13,0.24,1.28
20.821,-1.25,0.22,0.19,1.28
20.830,-1.08,0.18,0.29,1.13
20.840,-0.89,-0.01,0.30,0.94
20.850,-0.91,-0.29,0.28,0.99
20.860,-0.92,-0.47,0.12,1.04
20.870,-0.92,-0.50,-0.09,1.05
20.880,-1.01,-0.42,-0.14,1.11
20.890,-1.08,-0.47,-0.00,1.18
20.900,-1.11,-0.48,0.15,1.22
20.910,-0.94,-0.44,0.14,1.05
20.920,-0.69,-0.41,-0.01,0.80
20.930,-0.47,-0.46,-0.32,0.73
20.940,-0.25,-0.62,-0.62,0.91
20.950,-0.06,-0.82,-0.73,1.10
20.960,0.03,-0.91,-0.61,1.10
20.970,-0.05,-0.83,-0.34,0.90
20.980,-0.32,-0.79,-0.17,0.87
20.989,-0.36,-0.77,-0.28,0.89
21.000,-0.08,-0.68,-0.58,0.90
21.009,0.05,-0.74,-0.71,1.03
21.019,0.18,-0.88,-0.72,1.15
21.029,0.38,-0.91,-0.82,1.28
21.039,0.43,-0.89,-0.87,1.32
21.049,0.28,-0.93,-0.75,1.23
21.059,0.05,-0.86,-0.35,0.93
21.069,-0.21,-0.63,0.25,0.71
21.079,-0.39,-0.31,0.51,0.72
21.089,-0.43,-0.08,0.27,0.52
21.099,-0.38,0.01,-0.19,0.42
21.109,-0.02,0.11,-0.70,0.71
21.119,0.39,0.08,-0.88,0.96
21.129,0.63,-0.04,-0.67,0.92
21.139,0.53,-0.12,-0.26,0.60
21.149,0.14,-0.18,-0.17,0.29
21.159,-0.28,-0.13,-0.09,0.32
21.169,-0.65,-0.04,0.16,0.67
21.179,-0.62,0.14,0.19,0.66
21.188,-0.55,0.23,0.02,0.60
21.199,-0.48,0.02,-0.25,0.55
21.208,-0.29,-0.29,-0.43,0.59
21.218,-0.27,-0.45,-0.35,0.63
21.228,-0.22,-0.41,-0.19,0.51
21.238,-0.45,-0.37,-0.01,0.58
21.248,-0.85,-0.42,0.30,0.99
21.258,-1.14,-0.49,0.72,1.43
21.268,-1.21,-0.41,0.98,1.61
21.278,-1.17,-0.31,1.01,1.57
21.288,-0.93,-0.19,0.64,1.14
21.298,-0.76,-0.26,0.30,0.86
21.308,-0.33,-0.48,0.12,0.59
21.318,-0.02,-0.36,-0.65,0.75
21.328,0.36,-0.53,-0.66,0.92
21.338,0.60,-0.64,-0.88,1.24
21.348,0.79,-0.57,-0.95,1.36
21.358,0.78,-0.50,-0.67,1.14
21.367,0.51,-0.48,-0.36,0.79
21.378,0.28,-0.47,-0.21,0.59
21.388,-0.02,-0.51,-0.03,0.52
21.398,-0.19,-0.44,0.01,0.48
21.407,-0.34,-0.41,-0.03,0.53
21.417,-0.33,-0.36,-0.14,0.51
21.427,-0.45,-0.51,-0.14,0.69
21.437,-0.41,-0.65,-0.16,0.79
21.447,-0.20,-0.60,-0.21,0.67
21.457,-0.17,-0.50,-0.18,0.55
21.467,-0.06,-0.38,-0.22,0.44
21.477,0.00,-0.28,-0.20,0.35
21.487,0.01,-0.25,-0.09,0.27
21.497,0.13,-0.14,-0.15,0.24
21.507,0.19,-0.02,-0.28,0.34
21.517,0.23,0.10,-0.41,0.48
21.527,0.21,0.12,-0.56,0.61
21.537,0.32,0.07,-0.78,0.84
21.547,0.36,-0.04,-0.74,0.83
21.557,0.24,-0.16,-0.48,0.56
21.566,-0.00,-0.27,-0.15,0.31
21.577,-0.47,-0.40,0.23,0.66
21.586,-0.82,-0.46,0.46,1.05
21.596,-1.17,-0.53,0.56,1.40
21.606,-1.31,-0.60,0.65,1.58
21.616,-1.26,-0.63,0.69,1.57
21.626,-0.99,-0.70,0.48,1.30
21.636,-0.60,-0.80,0.17,1.01
21.646,-0.42,-0.83,0.06,0.93
21.656,-0.27,-0.73,0.14,0.79
21.666,-0.14,-0.60,0.10,0.62
21.676,0.03,-0.46,-0.17,0.50
21.686,0.22,-0.34,-0.45,0.60
21.696,0.21,-0.34,-0.36,0.54
21.706,0.24,-0.30,-0.10,0.39
21.716,0.21,-0.26,0.12,0.35
21.726,0.13,-0.22,0.09,0.27
21.736,0.00,-0.15,0.01,0.15
21.746,-0.09,-0.10,-0.05,0.14
21.756,-0.22,-0.10,-0.05,0.24
21.766,-0.17,-0.18,-0.16,0.30
21.776,-0.14,-0.29,-0.21,0.38
21.785,-0.09,-0.39,-0.28,0.49
21.796,-0.12,-0.41,-0.19,0.47
21.805,-0.17,-0.41,-0.10,0.46
21.815,-0.18,-0.34,-0.09,0.39
21.825,-0.16,-0.28,-0.13,0.35
21.835,-0.01,-0.17,-0.24,0.30
21.845,-0.08,-0.26,-0.22,0.35
21.855,-0.05,-0.30,-0.19,0.36
21.865,-0.15,-0.23,0.01,0.27
21.875,-0.24,-0.14,0.12,0.30
21.885,-0.31,-0.10,0.04,0.33
21.895,-0.37,-0.14,0.02,0.40
21.905,-0.35,-0.19,0.03,0.39
21.915,-0.34,-0.26,0.01,0.43
21.925,-0.24,-0.31,-0.07,0.40
21.935,-0.16,-0.35,-0.20,0.43
21.945,-0.02,-0.40,-0.40,0.57
21.955,-0.00,-0.50,-0.46,0.68
21.965,-0.07,-0.57,-0.31,0.65
21.975,-0.03,-0.49,-0.20,0.53
21.984,-0.20,-0.40,-0.12,0.46
21.994,-0.18,-0.31,-0.29,0.46
22.004,-0.17,-0.33,-0.41,0.56
22.014,-0.14,-0.35,-0.48,0.61
22.024,-0.03,-0.35,-0.53,0.64
22.034,-0.02,-0.36,-0.44,0.57
22.044,-0.06,-0.32,-0.35,0.48
22.054,-0.12,-0.27,-0.43,0.52
22.064,-0.26,-0.28,-0.45,0.59
22.074,-0.36,-0.30,-0.30,0.56
22.084,-0.44,-0.27,-0.06,0.52
22.094,-0.61,-0.26,0.11,0.67
22.104,-0.63,-0.20,0.06,0.66
22.114,-0.64,-0.17,0.02,0.66
22.124,-0.70,-0.19,0.10,0.73
22.134,-0.76,-0.19,0.22,0.81
22.144,-0.82,-0.25,0.28,0.91
22.154,-0.71,-0.18,0.27,0.78
22.164,-0.65,-0.09,0.15,0.67
22.173,-0.58,-0.13,0.01,0.59
22.183,-0.53,-0.23,0.04,0.58
22.193,-0.34,-0.26,0.08,0.44
22.203,-0.25,-0.26,0.08,0.37
22.213,-0.21,-0.28,-0.05,0.36
22.223,-0.11,-0.29,-0.12,0.33
22.233,-0.04,-0.36,-0.11,0.38
22.243,0.02,-0.47,-0.03,0.47
22.253,0.01,-0.57,0.08,0.58
22.263,0.03,-0.58,0.10,0.59
22.273,-0.13,-0.64,0.07,0.66
22.283,-0.15,-0.62,0.05,0.64
22.293,-0.12,-0.61,0.09,0.62
22.303,0.02,-0.60,-0.02,0.60
22.313,0.25,-0.54,-0.27,0.65
22.323,0.29,-0.56,-0.37,0.74
22.333,0.36,-0.55,-0.36,0.75
22.342,0.49,-0.43,-0.43,0.79
22.353,0.40,-0.32,-0.38,0.64
22.362,0.29,-0.19,-0.23,0.41
22.373,0.16,-0.02,-0.14,0.21
22.382,0.04,0.09,-0.21,0.24
22.392,0.01,0.13,-0.38,0.40
22.402,-0.05,0.10,-0.39,0.41
22.412,-0.14,0.09,-0.35,0.39
22.422,-0.20,0.07,-0.35,0.41
22.432,-0.39,0.04,-0.29,0.49
22.442,-0.58,-0.00,-0.17,0.60
22.452,-0.68,0.00,-0.09,0.69
22.462,-0.68,0.02,-0.16,0.70
22.472,-0.55,0.06,-0.41,0.68
22.482,-0.44,-0.01,-0.56,0.71
22.492,-0.30,-0.11,-0.59,0.67
22.502,-0.44,-0.28,-0.37,0.64
22.512,-0.58,-0.35,-0.13,0.69
22.522,-0.75,-0.33,-0.01,0.82
22.532,-0.95,-0.26,-0.05,0.98
22.541,-1.11,-0.25,-0.06,1.14
22.551,-1.22,-0.31,0.14,1.26
22.561,-1.21,-0.23,0.27,1.26
22.571,-1.05,-0.26,0.25,1.11
22.581,-0.84,-0.26,-0.03,0.88
22.591,-0.47,-0.18,-0.37,0.63
22.601,-0.39,-0.30,-0.51,0.71
22.611,-0.16,-0.51,-0.59,0.80
22.621,0.34,-0.49,-0.71,0.93
22.631,0.31,-0.59,-0.62,0.91
22.641,0.17,-0.60,-0.24,0.67
22.651,-0.02,-0.44,0.07,0.45
22.661,-0.17,-0.37,-0.05,0.41
22.671,-0.04,-0.31,-0.34,0.46
22.681,0.05,-0.24,-0.53,0.58
22.691,0.13,-0.31,-0.45,0.56
22.701,0.07,-0.45,-0.18,0.49
22.711,0.03,-0.52,-0.15,0.54
22.720,0.03,-0.51,-0.35,0.62
22.731,0.01,-0.41,-0.55,0.69
22.741,-0.12,-0.26,-0.45,0.54
22.751,-0.35,-0.16,-0.27,0.47
22.760,-0.37,-0.11,-0.12,0.40
22.770,-0.29,0.00,-0.19,0.35
22.780,-0.10,0.18,-0.45,0.50
22.790,-0.06,0.22,-0.45,0.50
22.800,-0.09,0.05,-0.32,0.34
22.810,-0.15,-0.01,-0.06,0.16
22.820,-0.33,0.07,0.10,0.36
22.830,-0.56,0.09,0.20,0.60
22.840,-0.72,0.08,0.15,0.74
22.850,-0.64,0.10,-0.12,0.66
22.860,-0.47,0.03,-0.39,0.62
22.870,-0.30,-0.13,-0.47,0.58
22.880,-0.25,-0.35,-0.33,0.54
22.890,-0.26,-0.55,-0.29,0.67
22.900,-0.32,-0.58,-0.25,0.71
22.910,-0.61,-0.52,0.02,0.80
22.920,-0.90,-0.47,0.35,1.08
22.930,-1.10,-0.50,0.61,1.35
22.939,-1.26,-0.62,0.77,1.60
22.949,-1.30,-0.65,0.82,1.67
22.959,-1.19,-0.42,0.77,1.48
22.969,-1.07,-0.36,0.62,1.29
22.979,-0.73,-0.44,0.22,0.88
22.989,-0.25,-0.45,-0.20,0.55
22.999,0.13,-0.47,-0.76,0.90
23.009,0.70,-0.44,-1.18,1.44
23.019,0.98,-0.49,-1.09,1.55
23.029,1.30,-0.37,-0.72,1.54
23.039,1.09,-0.25,-0.28,1.15
23.049,0.54,-0.11,0.19,0.58
23.059,0.06,0.01,0.53,0.54
23.069,-0.30,0.04,0.58,0.65
23.079,-0.24,0.06,0.10,0.26
23.089,-0.04,-0.09,-0.36,0.38
23.099,0.27,-0.24,-0.73,0.82
23.109,0.44,-0.40,-0.94,1.12
23.119,0.63,-0.55,-0.97,1.28
23.129,0.71,-0.59,-0.82,1.23
23.138,0.66,-0.41,-0.57,0.97
23.148,0.25,-0.17,-0.03,0.30
23.158,-0.02,0.04,0.32,0.32
23.168,-0.16,0.10,0.21,0.28
23.178,-0.15,0.22,-0.08,0.28
23.188,-0.02,0.30,-0.25,0.39
23.198,-0.05,0.20,-0.22,0.30
23.208,-0.10,0.11,-0.21,0.25
23.218,-0.14,0.07,-0.28,0.32
23.228,-0.20,0.06,-0.35,0.40
23.238,-0.27,0.10,-0.30,0.42
23.248,-0.41,0.12,-0.15,0.45
23.258,-0.48,0.08,-0.07,0.49
23.268,-0.39,0.02,-0.21,0.44
23.278,-0.28,-0.05,-0.41,0.50
23.288,-0.28,-0.18,-0.41,0.53
23.298,-0.40,-0.32,-0.22,0.56
23.308,-0.60,-0.44,-0.00,0.74
23.317,-0.79,-0.47,0.10,0.93
23.327,-0.91,-0.48,0.08,1.03
23.337,-0.93,-0.48,0.04,1.05
23.348,-0.91,-0.51,-0.00,1.04
23.357,-0.81,-0.56,-0.04,0.98
23.367,-0.71,-0.59,-0.06,0.93
23.377,-0.52,-0.49,-0.15,0.74
23.387,-0.53,-0.50,-0.09,0.73
23.397,-0.58,-0.56,0.12,0.82
23.407,-0.52,-0.48,0.28,0.76
23.417,-0.56,-0.35,0.36,0.75
23.427,-0.44,-0.27,0.23,0.56
23.437,-0.30,-0.25,0.07,0.40
23.447,-0.16,-0.28,-0.01,0.33
23.457,-0.06,-0.29,0.05,0.30
23.467,0.08,-0.24,0.01,0.25
23.477,0.12,-0.13,-0.07,0.19
23.487,0.07,-0.09,-0.08,0.14
23.497,-0.00,-0.06,0.08,0.10
23.507,-0.05,-0.03,0.17,0.18
23.516,-0.07,0.02,0.14,0.15
23.527,-0.13,0.03,0.11,0.17
23.536,-0.16,0.02,0.07,0.18
23.547,-0.14,-0.05,-0.05,0.16
23.556,-0.06,-0.07,-0.13,0.16
23.567,-0.15,-0.09,-0.08,0.19
23.576,-0.26,-0.13,-0.01,0.29
23.586,-0.29,-0.06,-0.02,0.30
23.596,-0.40,-0.02,0.03,0.40
23.606,-0.40,-0.01,0.06,0.40
23.616,-0.34,0.04,0.08,0.35
23.626,-0.27,0.02,-0.06,0.28
23.636,-0.15,-0.05,-0.26,0.31
23.646,-0.05,-0.10,-0.31,0.33
23.656,-0.05,-0.12,-0.32,0.34
23.666,-0.14,-0.17,-0.24,0.32
23.676,-0.23,-0.21,-0.16,0.35
23.686,-0.22,-0.18,-0.22,0.36
23.696,-0.30,-0.22,-0.24,0.44
23.706,-0.32,-0.31,-0.25,0.51
23.715,-0.25,-0.33,-0.29,0.51
23.725,-0.21,-0.41,-0.40,0.61
23.735,-0.13,-0.47,-0.49,0.69
23.745,-0.22,-0.49,-0.40,0.67
23.755,-0.21,-0.40,-0.38,0.58
23.765,-0.26,-0.36,-0.43,0.62
23.775,-0.17,-0.38,-0.47,0.63
23.785,-0.04,-0.37,-0.47,0.60
23.795,0.04,-0.35,-0.50,0.61
23.805,-0.03,-0.32,-0.35,0.48
23.815,-0.02,-0.16,-0.31,0.34
23.825,-0.16,-0.13,-0.26,0.33
23.835,-0.23,-0.17,-0.15,0.32
23.845,-0.35,-0.16,0.05,0.39
23.855,-0.53,-0.16,0.21,0.59
23.865,-0.52,-0.15,0.10,0.55
23.875,-0.38,-0.09,-0.10,0.40
23.885,-0.33,-0.07,-0.19,0.39
23.894,-0.31,-0.15,-0.11,0.36
23.905,-0.23,-0.10,-0.05,0.26
23.914,-0.26,-0.10,-0.09,0.29
23.924,-0.08,-0.03,-0.28,0.29
23.934,-0.16,-0.01,-0.18,0.24
23.944,-0.22,-0.06,-0.05,0.24
23.954,-0.20,-0.10,-0.04,0.23
23.964,-0.22,-0.03,-0.14,0.26
23.974,-0.32,-0.06,-0.13,0.35
23.984,-0.22,-0.04,-0.29,0.36
23.994,-0.16,-0.04,-0.31,0.35
24.004,-0.25,-0.19,-0.27,0.42
24.014,-0.06,-0.20,-0.37,0.43
24.024,-0.11,-0.15,-0.29,0.34
24.034,-0.16,-0.22,-0.22,0.35
24.044,-0.26,-0.29,-0.01,0.39
24.054,-0.25,-0.25,0.16,0.39
24.064,-0.27,-0.18,0.29,0.44
24.074,-0.21,-0.19,0.15,0.32
24.084,0.07,-0.24,-0.22,0.33
24.093,0.26,-0.41,-0.31,0.57
24.104,0.38,-0.53,-0.21,0.69
24.113,0.26,-0.60,0.02,0.65
24.124,0.10,-0.59,0.16,0.62
24.133,-0.12,-0.49,0.32,0.60
24.143,-0.16,-0.39,0.31,0.53
24.153,0.02,-0.32,0.11,0.34
24.163,0.27,-0.39,-0.08,0.48
24.173,0.53,-0.48,-0.10,0.72
24.183,0.73,-0.48,-0.16,0.89
24.193,0.75,-0.44,-0.18,0.89
24.203,0.57,-0.43,-0.07,0.72
24.213,0.25,-0.34,0.23,0.48
24.223,-0.05,-0.16,0.45,0.48
24.233,-0.10,-0.01,0.34,0.35
24.243,-0.07,0.05,0.09,0.12
24.253,0.18,0.07,-0.18,0.27
24.263,0.38,-0.02,-0.24,0.45
24.273,0.43,-0.10,-0.14,0.46
24.283,0.38,-0.06,-0.09,0.39
24.293,0.18,0.09,-0.14,0.25
24.303,0.03,0.21,-0.30,0.37
24.312,-0.02,0.27,-0.36,0.45
24.322,-0.05,0.19,-0.24,0.31
24.332,-0.06,0.11,-0.09,0.16
24.342,-0.25,0.00,0.03,0.25
24.352,-0.39,-0.05,0.01,0.40
24.362,-0.52,-0.03,-0.14,0.54
24.372,-0.73,-0.08,-0.15,0.75
24.382,-0.78,-0.13,-0.00,0.79
24.392,-0.92,-0.23,0.25,0.98
24.402,-1.04,-0.32,0.38,1.15
24.412,-1.08,-0.37,0.38,1.20
24.422,-1.04,-0.37,0.26,1.13
24.432,-0.97,-0.38,0.07,1.04
24.442,-0.69,-0.40,-0.15,0.81
24.452,-0.35,-0.40,-0.36,0.64
24.462,-0.15,-0.37,-0.50,0.64
24.472,0.01,-0.35,-0.62,0.71
24.482,0.06,-0.37,-0.61,0.72
24.491,0.08,-0.33,-0.44,0.55
24.502,-0.09,-0.26,-0.20,0.34
24.511,-0.22,-0.18,-0.09,0.30
24.521,-0.26,-0.19,-0.10,0.34
24.531,-0.28,-0.24,-0.13,0.38
24.541,-0.26,-0.31,-0.13,0.42
24.551,-0.27,-0.44,-0.11,0.53
24.561,-0.12,-0.42,-0.25,0.51
24.571,-0.19,-0.53,-0.26,0.62
24.581,-0.04,-0.53,-0.31,0.61
24.591,0.05,-0.44,-0.19,0.48
24.601,-0.03,-0.39,-0.00,0.39
24.611,-0.00,-0.33,0.14,0.36
24.621,0.03,-0.24,0.20,0.31
24.631,0.11,-0.10,0.01,0.15
24.641,0.21,-0.05,-0.12,0.25
24.651,0.27,-0.01,-0.04,0.28
24.661,0.23,-0.02,0.20,0.31
24.670,0.05,0.02,0.29,0.30
24.681,-0.10,0.04,0.28,0.30
24.691,-0.24,0.09,0.20,0.32
24.700,-0.27,0.13,0.12,0.32
24.710,-0.07,0.11,-0.05,0.14
24.720,0.14,-0.06,-0.26,0.30
24.730,0.28,-0.13,-0.23,0.39
24.740,0.31,-0.12,-0.15,0.36
24.750,0.22,-0.16,-0.21,0.34
24.760,0.08,-0.13,-0.17,0.22
24.770,-0.16,-0.14,0.09,0.23
24.780,-0.31,-0.08,0.26,0.41
24.790,-0.31,0.03,0.13,0.33
24.800,-0.36,0.09,-0.03,0.37
24.810,-0.38,-0.05,-0.05,0.38
24.820,-0.25,-0.17,-0.13,0.33
24.830,-0.09,-0.20,-0.23,0.32
24.840,-0.13,-0.20,-0.23,0.33
24.850,-0.23,-0.28,-0.12,0.38
24.860,-0.20,-0.36,-0.13,0.43
24.869,-0.29,-0.44,-0.13,0.54
24.880,-0.43,-0.43,0.01,0.61
24.889,-0.58,-0.35,0.17,0.70
24.900,-0.57,-0.29,0.08,0.64
24.909,-0.41,-0.30,-0.19,0.54
24.919,-0.34,-0.37,-0.23,0.55
24.929,-0.05,-0.27,-0.26,0.38
24.939,-0.06,-0.29,-0.19,0.35
24.949,0.12,-0.32,-0.40,0.53
24.959,0.21,-0.36,-0.47,0.62
24.969,0.26,-0.36,-0.43,0.62
24.979,0.15,-0.36,-0.18,0.43
24.989,0.02,-0.34,-0.03,0.34
24.999,-0.09,-0.29,0.03,0.31
25.009,-0.31,-0.39,0.08,0.51
25.019,-0.32,-0.42,0.09,0.53
25.029,-0.22,-0.41,0.11,0.48
25.039,-0.08,-0.41,0.01,0.41
25.049,0.11,-0.47,-0.11,0.49
25.059,0.27,-0.47,-0.23,0.59
25.068,0.21,-0.51,-0.23,0.60
25.079,0.30,-0.52,-0.27,0.66
25.088,0.36,-0.41,-0.30,0.62
25.098,0.30,-0.35,-0.21,0.51
25.108,0.17,-0.33,0.12,0.39
25.118,0.09,-0.25,0.23,0.35
25.128,-0.09,-0.29,0.23,0.39
25.138,-0.39,-0.32,0.44,0.67
25.148,-0.69,-0.35,0.78,1.10
25.158,-0.83,-0.30,0.96,1.31
25.168,-1.05,-0.37,1.02,1.51
25.178,-0.88,-0.26,0.87,1.26
25.188,-0.68,-0.19,0.57,0.91
25.198,-0.49,-0.35,0.43,0.74
25.208,-0.13,-0.39,0.25,0.48
25.218,-0.10,-0.58,0.15,0.60
25.228,0.20,-0.54,-0.20,0.61
25.238,0.29,-0.44,-0.38,0.65
25.247,0.44,-0.34,-0.55,0.78
25.258,0.37,-0.34,-0.58,0.77
25.267,0.26,-0.42,-0.39,0.63
25.278,0.32,-0.38,-0.44,0.67
25.287,0.07,-0.42,-0.33,0.54
25.297,-0.19,-0.39,-0.11,0.45
25.307,-0.64,-0.40,0.13,0.76
25.317,-0.79,-0.46,-0.04,0.92
25.327,-0.77,-0.56,-0.27,0.99
25.337,-0.58,-0.55,-0.45,0.91
25.347,-0.32,-0.57,-0.57,0.87
25.357,-0.16,-0.70,-0.54,0.90
25.367,0.01,-0.78,-0.49,0.92
25.377,-0.03,-0.76,-0.30,0.82
25.387,-0.14,-0.57,-0.12,0.60
25.397,-0.17,-0.37,-0.21,0.46
25.407,0.01,-0.20,-0.52,0.56
25.417,0.00,-0.19,-0.54,0.58
25.427,0.01,-0.31,-0.48,0.57
25.436,-0.22,-0.55,-0.25,0.64
25.446,-0.34,-0.65,-0.01,0.73
25.457,-0.42,-0.48,0.15,0.66
25.466,-0.56,-0.39,0.14,0.70
25.477,-0.79,-0.45,0.23,0.94
25.486,-0.82,-0.64,0.25,1.07
25.496,-0.72,-0.78,0.29,1.10
25.506,-0.39,-0.74,0.12,0.84
25.516,-0.40,-0.80,0.13,0.90
25.526,-0.51,-0.94,0.33,1.12
25.536,-0.37,-0.81,0.39,0.98
25.546,-0.35,-0.75,0.30,0.88
25.556,-0.06,-0.54,0.04,0.55
25.566,-0.02,-0.50,0.11,0.51
25.576,0.28,-0.45,-0.06,0.54
25.586,0.45,-0.51,-0.37,0.78
25.596,0.59,-0.57,-0.62,1.03
25.606,0.56,-0.58,-0.59,0.99
25.616,0.40,-0.63,-0.48,0.88
25.626,0.27,-0.59,-0.45,0.79
25.636,0.12,-0.59,-0.35,0.70
25.645,0.13,-0.51,-0.37,0.64
25.656,-0.05,-0.54,-0.26,0.60
25.665,0.06,-0.60,-0.44,0.74
25.675,0.06,-0.66,-0.48,0.82
25.685,0.14,-0.76,-0.58,0.97
25.695,0.14,-0.82,-0.44,0.94
25.705,-0.11,-0.83,-0.12,0.85
25.715,-0.19,-0.76,-0.16,0.80
25.725,-0.38,-0.73,-0.09,0.83
25.735,-0.43,-0.67,0.04,0.80
25.745,-0.46,-0.59,0.17,0.77
25.755,-0.54,-0.61,0.19,0.83
25.765,-0.50,-0.60,0.05,0.78
25.775,-0.44,-0.54,-0.11,0.70
25.785,-0.65,-0.69,-0.08,0.95
25.795,-0.32,-0.72,-0.32,0.85
25.805,-0.08,-0.63,-0.60,0.88
25.815,-0.17,-0.83,-0.47,0.96
25.825,-0.25,-0.86,0.01,0.90
25.835,-0.69,-0.81,0.28,1.10
25.845,-0.75,-0.70,0.04,1.03
25.854,-0.62,-0.63,-0.34,0.95
25.864,-0.41,-0.64,-0.65,1.00
25.875,-0.35,-0.75,-0.53,0.98
25.884,-0.40,-0.93,-0.29,1.06
25.894,-0.33,-0.84,-0.34,0.97
25.904,-0.44,-0.72,-0.47,0.96
25.914,-0.47,-0.60,-0.45,0.89
25.924,-0.52,-0.55,-0.29,0.81
25.934,-0.62,-0.58,-0.10,0.85
25.944,-0.82,-0.64,0.02,1.04
25.954,-0.86,-0.65,0.00,1.08
25.964,-0.65,-0.53,-0.28,0.88
25.974,-0.43,-0.50,-0.46,0.80
25.984,-0.21,-0.55,-0.58,0.82
25.994,-0.23,-0.76,-0.52,0.95
26.004,-0.26,-0.87,-0.33,0.96
26.014,-0.36,-0.84,-0.11,0.92
26.023,-0.37,-0.63,-0.05,0.73
26.034,-0.48,-0.57,-0.06,0.74
26.043,-0.53,-0.65,-0.06,0.84
26.053,-0.38,-0.75,-0.06,0.84
26.063,-0.18,-0.79,-0.23,0.84
26.073,-0.05,-0.85,-0.35,0.92
26.083,-0.01,-0.95,-0.36,1.01
26.093,0.02,-0.98,-0.26,1.02
26.103,0.02,-0.98,-0.21,1.01
26.113,-0.02,-0.96,-0.12,0.97
26.123,0.01,-0.86,-0.08,0.86
26.133,-0.18,-0.89,0.19,0.93
26.143,-0.37,-0.94,0.35,1.07
26.153,-0.38,-0.94,0.29,1.06
26.163,-0.26,-0.80,0.01,0.84
26.173,-0.20,-0.78,-0.17,0.82
26.183,-0.05,-0.89,-0.20,0.92
26.193,0.50,-0.76,-0.75,1.18
26.203,0.69,-0.72,-1.21,1.57
26.213,1.08,-0.71,-1.48,1.97
26.222,0.98,-0.87,-1.02,1.67
26.233,0.80,-1.01,-0.58,1.42
26.242,0.48,-0.93,-0.32,1.09
26.252,-0.18,-0.79,0.10,0.82
26.262,-0.82,-0.75,0.56,1.24
26.272,-1.27,-0.77,0.89,1.73
26.282,-1.31,-0.65,0.74,1.64
26.292,-1.11,-0.59,0.34,1.30
26.302,-1.04,-0.66,0.22,1.25
26.312,-0.93,-0.77,0.22,1.23
26.322,-0.68,-0.88,0.04,1.11
26.332,-0.38,-0.87,-0.10,0.96
26.342,-0.16,-0.73,-0.07,0.75
26.352,-0.21,-0.62,0.08,0.66
26.362,-0.34,-0.57,0.18,0.69
26.372,-0.41,-0.59,0.15,0.73
26.382,-0.36,-0.55,0.14,0.67
26.392,-0.33,-0.54,0.18,0.66
26.401,-0.48,-0.65,0.24,0.84
26.412,-0.58,-0.81,0.17,1.01
26.421,-0.59,-0.90,0.00,1.08
26.432,-0.50,-0.99,-0.16,1.12
26.441,-0.45,-1.10,-0.26,1.21
26.451,-0.42,-1.20,-0.29,1.30
26.461,-0.28,-1.24,-0.39,1.33
26.471,-0.23,-1.31,-0.36,1.38
26.481,-0.29,-1.40,-0.15,1.44
26.491,-0.15,-1.23,-0.08,1.25
26.501,-0.05,-1.02,-0.17,1.04
26.511,-0.13,-0.96,-0.16,0.98
26.521,0.03,-0.86,-0.20,0.88
26.531,0.00,-0.73,-0.10,0.74
26.541,-0.28,-0.77,0.16,0.83
26.551,-0.39,-0.72,0.24,0.85
26.561,-0.21,-0.43,-0.07,0.48
26.571,-0.15,-0.35,-0.40,0.55
26.581,-0.06,-0.50,-0.43,0.66
26.591,0.09,-0.65,-0.41,0.77
26.601,0.13,-0.89,-0.44,1.00
26.611,0.27,-0.90,-0.68,1.16
26.620,0.07,-0.93,-0.49,1.06
26.630,-0.18,-0.92,-0.17,0.95
26.640,-0.40,-0.93,-0.07,1.01
26.650,-0.31,-0.90,-0.41,1.04
26.660,-0.08,-0.86,-0.82,1.19
26.670,0.05,-0.94,-0.94,1.33
26.680,0.09,-1.07,-0.84,1.36
26.690,0.06,-1.16,-0.81,1.42
26.700,0.02,-1.17,-0.81,1.42
26.710,-0.18,-1.06,-0.53,1.19
26.720,-0.55,-0.93,-0.06,1.08
26.730,-0.86,-0.89,0.28,1.27
26.740,-1.11,-0.87,0.48,1.49
26.750,-1.15,-0.79,0.44,1.46
26.760,-1.07,-0.71,0.24,1.31
26.770,-0.90,-0.74,0.04,1.16
26.780,-0.64,-0.86,-0.10,1.07
26.790,-0.44,-0.95,-0.10,1.05
26.799,-0.33,-0.99,-0.08,1.04
26.810,-0.30,-0.96,-0.04,1.00
26.819,-0.31,-0.87,-0.03,0.92
26.830,-0.31,-0.73,-0.09,0.80
26.839,-0.20,-0.65,-0.25,0.72
26.849,0.00,-0.64,-0.44,0.77
26.859,0.04,-0.69,-0.47,0.83
26.869,0.00,-0.80,-0.41,0.90
26.879,-0.03,-0.82,-0.46,0.94
26.889,-0.10,-0.74,-0.51,0.90
26.899,-0.14,-0.76,-0.44,0.89
26.909,-0.22,-0.89,-0.32,0.97
26.919,-0.27,-0.95,-0.21,1.01
26.929,-0.36,-0.93,-0.04,1.00
26.939,-0.46,-0.93,0.05,1.04
26.949,-0.49,-0.92,0.07,1.05
26.959,-0.56,-0.93,0.13,1.09
26.969,-0.62,-0.98,0.26,1.19
26.979,-0.43,-0.86,0.21,0.99
26.989,-0.33,-0.73,0.24,0.84
26.999,-0.13,-0.66,0.16,0.69
27.009,0.17,-0.64,-0.13,0.67
27.018,0.31,-0.74,-0.18,0.82
27.028,0.50,-0.79,-0.22,0.96
27.038,0.54,-0.77,-0.24,0.97
27.048,0.53,-0.70,-0.18,0.89
27.058,0.38,-0.70,-0.05,0.80
27.068,0.34,-0.73,-0.08,0.81
27.078,0.42,-0.75,-0.34,0.92
27.088,0.51,-0.76,-0.44,1.01
27.098,0.38,-0.87,-0.22,0.98
27.108,0.28,-0.99,-0.17,1.04
27.118,0.27,-0.96,-0.34,1.05
27.128,0.12,-1.03,-0.38,1.11
27.138,0.23,-0.94,-0.55,1.11
27.148,0.22,-0.82,-0.60,1.04
27.158,0.17,-0.88,-0.61,1.08
27.168,0.18,-0.90,-0.53,1.06
27.177,0.06,-0.82,-0.40,0.92
27.188,-0.11,-0.65,-0.32,0.73
27.198,-0.34,-0.54,-0.24,0.68
27.208,-0.38,-0.43,-0.27,0.63
27.217,-0.37,-0.33,-0.30,0.58
27.227,-0.34,-0.32,-0.38,0.60
27.237,-0.31,-0.35,-0.39,0.61
27.248,-0.39,-0.39,-0.38,0.67
27.257,-0.53,-0.43,-0.39,0.78
27.267,-0.65,-0.50,-0.46,0.94
27.277,-0.68,-0.55,-0.55,1.04
27.287,-0.72,-0.61,-0.57,1.10
27.297,-0.81,-0.69,-0.35,1.12
27.307,-1.00,-0.82,-0.05,1.29
27.317,-1.23,-0.93,0.22,1.56
27.327,-1.48,-0.98,0.38,1.81
27.337,-1.67,-0.96,0.52,1.99
27.347,-1.67,-0.90,0.45,1.95
27.357,-1.44,-0.81,0.16,1.66
27.367,-1.02,-0.87,-0.22,1.36
27.377,-0.55,-0.94,-0.61,1.24
27.387,-0.12,-1.07,-0.77,1.33
27.396,0.16,-1.30,-0.35,1.36
27.407,0.09,-1.18,-0.55,1.31
27.416,0.14,-1.17,-0.14,1.19
27.426,-0.17,-1.18,0.26,1.23
27.436,-0.36,-1.12,0.53,1.30
27.446,-0.53,-1.14,0.88,1.54
27.456,-0.77,-1.21,1.23,1.89
27.466,-0.94,-1.41,1.55,2.30
27.476,-1.04,-1.14,0.93,1.80
27.486,-0.97,-1.21,1.07,1.88
27.496,-0.83,-1.25,0.79,1.69
27.506,-0.47,-1.27,0.54,1.45
27.516,-0.10,-1.47,0.61,1.59
27.526,0.19,-1.38,-0.13,1.39
27.536,0.85,-1.24,-0.19,1.51
27.546,1.15,-1.13,-0.17,1.62
27.556,1.49,-1.02,-0.19,1.81
27.566,1.61,-0.85,-0.06,1.82
27.575,1.43,-0.60,0.19,1.56
27.586,1.10,-0.32,0.45,1.23
27.595,0.84,-0.06,0.51,0.98
27.606,0.56,0.08,0.40,0.69
27.615,0.35,0.06,0.19,0.40
27.625,0.26,-0.07,-0.15,0.31
27.635,0.19,-0.22,-0.37,0.47
27.645,0.14,-0.35,-0.34,0.51
27.655,0.22,-0.48,-0.32,0.61
27.665,0.24,-0.54,-0.29,0.66
27.675,0.20,-0.47,-0.43,0.67
27.685,0.21,-0.40,-0.48,0.66
27.695,0.23,-0.38,-0.39,0.59
27.705,0.25,-0.35,-0.26,0.50
27.715,0.13,-0.34,-0.18,0.40
27.725,0.01,-0.29,-0.25,0.38
27.735,-0.06,-0.24,-0.36,0.44
27.745,-0.18,-0.27,-0.46,0.57
27.755,-0.23,-0.33,-0.59,0.72
27.765,-0.28,-0.37,-0.67,0.81
27.774,-0.41,-0.50,-0.58,0.87
27.785,-0.58,-0.57,-0.43,0.92
27.794,-0.75,-0.64,-0.30,1.03
27.804,-0.93,-0.71,-0.18,1.19
27.814,-1.16,-0.84,-0.10,1.43
27.824,-1.23,-0.93,-0.05,1.54
27.834,-1.19,-0.98,-0.15,1.55
27.844,-1.14,-1.10,-0.21,1.60
27.854,-1.04,-1.27,-0.22,1.65
27.864,-0.92,-1.37,-0.18,1.66
27.874,-0.88,-1.39,-0.19,1.66
27.884,-0.80,-1.28,-0.33,1.54
27.894,-0.65,-1.08,-0.49,1.35
27.904,-0.60,-0.95,-0.48,1.22
27.914,-0.58,-0.96,-0.39,1.18
27.924,-0.48,-0.95,-0.29,1.11
27.934,-0.41,-0.96,-0.18,1.06
27.944,-0.33,-0.94,-0.23,1.03
27.954,-0.27,-0.95,-0.26,1.02
27.964,-0.28,-0.94,-0.12,0.99
27.973,-0.42,-1.05,0.25,1.16
27.983,-0.54,-0.89,0.17,1.05
27.993,-0.49,-0.89,0.41,1.09
28.003,-0.39,-0.77,0.14,0.88
28.013,-0.15,-0.70,-0.09,0.72
28.023,0.07,-0.69,-0.11,0.70
28.033,0.21,-0.75,-0.03,0.78
28.043,0.32,-0.82,0.19,0.90
28.053,0.44,-0.77,0.35,0.96
28.063,0.29,-0.66,0.61,0.94
28.073,-0.00,-0.51,0.84,0.98
28.083,-0.23,-0.36,0.77,0.88
28.093,-0.24,-0.25,0.34,0.49
28.103,0.01,-0.21,-0.03,0.22
28.113,0.32,-0.25,-0.11,0.42
28.123,0.64,-0.31,-0.19,0.73
28.133,0.95,-0.35,-0.56,1.16
28.143,1.07,-0.39,-0.88,1.44
28.152,0.91,-0.44,-0.63,1.19
28.163,0.57,-0.46,-0.22,0.77
28.172,0.20,-0.49,-0.17,0.55
28.183,0.09,-0.42,-0.26,0.50
28.192,0.04,-0.24,-0.19,0.30
28.202,-0.11,-0.20,-0.02,0.23
28.212,-0.21,-0.32,0.04,0.38
28.222,-0.21,-0.40,-0.09,0.46
28.232,-0.27,-0.44,-0.23,0.57
28.242,-0.35,-0.38,-0.28,0.59
28.252,-0.44,-0.35,-0.26,0.62
28.262,-0.50,-0.38,-0.29,0.69
28.272,-0.51,-0.41,-0.38,0.76
28.282,-0.43,-0.45,-0.40,0.74
28.292,-0.41,-0.49,-0.30,0.71
28.302,-0.54,-0.52,-0.07,0.76
28.312,-0.56,-0.55,0.01,0.79
28.322,-0.59,-0.55,-0.02,0.80
28.332,-0.54,-0.54,-0.25,0.81
28.342,-0.41,-0.52,-0.47,0.82
28.351,-0.26,-0.60,-0.59,0.88
28.362,-0.15,-0.78,-0.53,0.96
28.371,-0.14,-0.99,-0.51,1.12
28.382,-0.08,-0.93,-0.68,1.16
28.391,-0.26,-0.92,-0.27,0.99
28.401,-0.55,-0.76,-0.09,0.94
28.411,-0.54,-0.71,-0.02,0.89
28.421,-0.48,-0.70,-0.01,0.85
28.431,-0.52,-0.76,0.19,0.94
28.441,-0.48,-0.72,0.25,0.90
28.451,-0.36,-0.63,0.21,0.75
28.461,-0.25,-0.56,0.10,0.62
28.471,-0.17,-0.51,0.01,0.54
28.481,-0.11,-0.50,0.09,0.52
28.491,-0.16,-0.52,0.41,0.68
28.501,-0.20,-0.44,0.61,0.78
28.511,-0.22,-0.35,0.57,0.70
28.521,-0.23,-0.31,0.37,0.53
28.531,-0.16,-0.30,0.11,0.36
28.541,0.07,-0.36,-0.08,0.38
28.550,0.52,-0.37,-0.28,0.70
28.561,0.57,-0.46,-0.24,0.78
28.570,0.30,-0.61,0.21,0.71
28.580,-0.09,-0.71,0.55,0.91
28.590,-0.24,-0.58,0.50,0.80
28.600,-0.33,-0.38,0.48,0.70
28.610,-0.33,-0.26,0.41,0.59
28.620,-0.51,-0.35,0.47,0.78
28.630,-0.27,-0.53,0.03,0.59
28.640,0.57,-0.36,-0.64,0.92
28.650,0.78,-0.33,-0.99,1.30
28.660,0.90,-0.48,-1.10,1.50
28.670,0.98,-0.68,-1.06,1.60
28.680,1.11,-0.66,-1.06,1.67
28.690,0.97,-0.52,-0.72,1.32
28.700,0.46,-0.39,-0.12,0.62
28.710,-0.04,-0.32,0.23,0.40
28.720,-0.38,-0.34,0.16,0.54
28.730,-0.45,-0.39,-0.17,0.62
28.740,-0.41,-0.50,-0.43,0.78
28.750,-0.32,-0.59,-0.57,0.88
28.760,-0.32,-0.73,-0.63,1.02
28.769,-0.22,-0.89,-0.75,1.19
28.779,-0.06,-0.90,-0.81,1.22
28.789,-0.03,-0.80,-0.62,1.01
28.799,-0.08,-0.72,-0.27,0.77
28.809,-0.19,-0.66,0.02,0.69
28.819,-0.33,-0.60,0.16,0.70
28.829,-0.46,-0.57,0.18,0.76
28.839,-0.44,-0.54,0.10,0.71
28.849,-0.35,-0.48,0.07,0.60
28.859,-0.43,-0.53,0.17,0.70
28.869,-0.41,-0.66,0.26,0.82
28.879,-0.32,-0.73,0.27,0.84
28.889,-0.24,-0.74,0.24,0.81
28.899,-0.31,-0.74,0.34,0.87
28.909,-0.32,-0.78,0.46,0.96
28.919,-0.40,-0.80,0.51,1.03
28.929,-0.36,-0.82,0.44,1.00
28.939,-0.18,-0.79,0.25,0.85
28.948,-0.13,-0.79,0.22,0.83
28.959,-0.12,-0.78,0.31,0.85
28.969,-0.20,-0.76,0.46,0.91
28.978,-0.28,-0.72,0.41,0.88
28.988,-0.34,-0.56,0.32,0.73
28.998,-0.43,-0.35,0.23,0.60
29.008,-0.43,-0.22,0.09,0.49
29.018,-0.29,-0.12,-0.10,0.33
29.028,-0.14,-0.08,-0.31,0.35
29.038,-0.08,-0.07,-0.36,0.38
29.048,-0.10,-0.05,-0.33,0.35
29.058,-0.22,-0.05,-0.38,0.44
29.068,-0.27,-0.01,-0.50,0.57
29.078,-0.24,0.02,-0.61,0.66
29.088,-0.20,-0.03,-0.57,0.61
29.098,-0.30,-0.18,-0.30,0.46
29.108,-0.52,-0.29,0.02,0.60
29.118,-0.81,-0.32,0.22,0.90
29.128,-1.01,-0.29,0.15,1.06
29.138,-0.94,-0.28,-0.19,1.00
29.147,-0.81,-0.45,-0.46,1.04
29.157,-0.74,-0.78,-0.35,1.13
29.167,-0.58,-1.10,-0.08,1.25
29.177,-0.41,-1.15,-0.07,1.22
29.187,-0.24,-1.00,-0.40,1.10
29.197,-0.01,-0.82,-0.75,1.11
29.207,0.11,-0.74,-0.85,1.13
29.217,0.36,-0.69,-0.78,1.10
29.227,0.39,-0.80,-0.52,1.03
29.237,0.53,-1.00,-0.33,1.18
29.247,0.48,-0.79,-0.91,1.30
29.257,0.59,-0.57,-0.86,1.19
29.267,0.45,-0.66,-0.62,1.01
29.277,0.43,-0.67,-0.55,0.97
29.287,0.36,-0.67,-0.47,0.90
29.297,0.25,-0.65,-0.47,0.84
29.307,0.12,-0.65,-0.31,0.73
29.317,0.07,-0.69,-0.14,0.71
29.326,0.13,-0.71,-0.17,0.74
29.337,0.29,-0.73,-0.19,0.80
29.346,0.27,-0.80,0.10,0.85
29.357,0.11,-0.90,0.42,1.00
29.366,-0.03,-0.94,0.59,1.11
29.376,-0.23,-0.95,0.70,1.20
29.386,-0.36,-0.88,0.87,1.29
29.396,-0.54,-0.80,0.93,1.34
29.406,-0.50,-0.74,0.86,1.23
29.416,-0.28,-0.67,0.62,0.96
29.426,0.13,-0.62,0.28,0.69
29.436,0.51,-0.58,0.07,0.77
29.446,0.81,-0.52,-0.03,0.96
29.456,0.99,-0.43,-0.17,1.10
29.466,1.09,-0.37,-0.29,1.19
29.476,1.09,-0.28,-0.32,1.17
29.486,0.96,-0.17,-0.15,0.99
29.496,0.65,-0.11,0.00,0.66
29.506,0.43,-0.18,0.00,0.47
29.516,0.26,-0.26,0.01,0.37
29.526,0.07,-0.26,0.13,0.30
29.536,0.00,-0.16,0.12,0.20
29.545,-0.07,-0.17,-0.01,0.18
29.555,-0.01,-0.20,-0.27,0.34
29.565,0.15,-0.25,-0.54,0.61
29.575,0.23,-0.33,-0.64,0.76
29.585,0.34,-0.39,-0.58,0.78
29.595,0.27,-0.42,-0.31,0.59
29.605,-0.02,-0.50,0.03,0.50
29.615,-0.47,-0.57,0.37,0.83
29.625,-0.78,-0.51,0.49,1.05
29.635,-0.95,-0.40,0.41,1.11
29.645,-0.90,-0.27,0.26,0.98
29.655,-0.79,-0.25,0.16,0.84
29.665,-0.72,-0.35,0.18,0.82
29.675,-0.78,-0.51,0.27,0.96
29.685,-0.82,-0.58,0.32,1.05
29.695,-0.72,-0.46,-0.01,0.86
29.704,-0.60,-0.32,-0.49,0.84
29.715,-0.31,-0.24,-0.77,0.87
29.725,0.19,-0.25,-0.93,0.98
29.735,0.39,-0.37,-0.83,0.99
29.744,0.15,-0.55,-0.47,0.74
29.755,-0.04,-0.51,-0.09,0.52
29.764,-0.48,-0.31,0.07,0.58
29.774,-0.70,-0.21,-0.26,0.77
29.784,-0.66,-0.13,-0.55,0.87
29.794,-0.72,-0.33,-0.43,0.90
29.804,-0.67,-0.58,-0.34,0.95
29.814,-0.64,-0.80,-0.38,1.09
29.824,-0.66,-0.82,-0.31,1.10
29.834,-0.71,-0.67,-0.12,0.99
29.844,-0.74,-0.56,0.03,0.93
29.854,-0.68,-0.54,-0.01,0.87
29.864,-0.41,-0.53,-0.10,0.68
29.874,-0.13,-0.55,-0.21,0.60
29.884,0.02,-0.66,-0.28,0.72
29.894,0.07,-0.77,-0.28,0.82
29.904,0.02,-0.76,-0.17,0.78
29.914,-0.11,-0.65,0.01,0.66
29.923,-0.15,-0.50,0.10,0.53
29.934,-0.11,-0.36,0.14,0.41
29.943,-0.05,-0.36,0.13,0.39
29.953,0.04,-0.44,0.09,0.45
29.963,0.27,-0.50,-0.06,0.57
29.973,0.54,-0.58,-0.22,0.83
29.983,0.66,-0.66,-0.27,0.97
29.993,0.66,-0.73,-0.16,1.00
30.003,0.55,-0.78,-0.06,0.96
30.013,0.41,-0.79,0.03,0.89
30.023,0.28,-0.74,0.16,0.81
30.033,0.25,-0.65,0.26,0.75
30.043,0.15,-0.63,0.40,0.76
30.053,0.09,-0.64,0.47,0.80
30.063,0.07,-0.63,0.49,0.80
30.073,0.09,-0.64,0.44,0.78
30.083,0.24,-0.62,0.19,0.70
30.093,0.42,-0.59,-0.06,0.73
30.102,0.56,-0.61,-0.16,0.84
30.113,0.56,-0.63,-0.10,0.85
30.122,0.51,-0.62,0.03,0.80
30.132,0.29,-0.57,0.17,0.66
30.142,0.07,-0.42,0.21,0.48
30.152,-0.13,-0.32,0.21,0.41
30.162,-0.23,-0.26,0.19,0.40
30.172,-0.23,-0.27,0.11,0.37
30.182,-0.16,-0.30,0.10,0.35
30.192,-0.15,-0.36,0.06,0.39
30.202,-0.19,-0.41,0.02,0.45
30.212,-0.27,-0.42,-0.03,0.49
30.222,-0.37,-0.38,0.03,0.53
30.232,-0.54,-0.36,0.18,0.67
30.242,-0.65,-0.34,0.27,0.78
30.252,-0.68,-0.34,0.29,0.82
30.262,-0.73,-0.35,0.29,0.86
30.272,-0.75,-0.36,0.31,0.89
30.282,-0.81,-0.40,0.28,0.95
30.292,-0.86,-0.48,0.23,1.01
30.302,-0.96,-0.50,0.30,1.12
30.312,-1.11,-0.56,0.53,1.35
30.321,-1.41,-0.62,0.87,1.77
30.332,-1.73,-0.67,1.22,2.22
30.341,-1.79,-0.66,1.24,2.27
30.351,-1.57,-0.50,0.88,1.87
30.361,-1.18,-0.35,0.39,1.29
30.371,-0.76,-0.47,-0.03,0.89
30.381,-0.15,-0.61,-0.57,0.85
30.391,0.42,-0.70,-0.94,1.25
30.401,0.81,-0.75,-1.06,1.53
30.411,0.92,-0.78,-0.67,1.38
30.421,0.69,-0.73,-0.21,1.03
30.431,0.34,-0.62,-0.10,0.71
30.441,0.25,-0.60,-0.22,0.68
30.451,0.16,-0.60,-0.23,0.66
30.461,0.10,-0.64,-0.23,0.69
30.471,0.18,-0.75,-0.46,0.90
30.481,0.24,-0.89,-0.75,1.19
30.491,0.38,-0.94,-0.90,1.36
30.501,0.42,-0.97,-0.78,1.31
30.511,0.42,-0.90,-0.62,1.18
30.521,0.41,-0.84,-0.41,1.02
30.531,0.49,-0.77,-0.33,0.97
30.540,0.54,-0.69,-0.23,0.91
30.550,0.48,-0.66,-0.13,0.83
30.560,0.41,-0.63,-0.13,0.77
30.570,0.32,-0.56,-0.27,0.70
30.580,0.23,-0.48,-0.42,0.68
30.590,0.10,-0.47,-0.41,0.63
30.600,0.11,-0.44,-0.42,0.62
30.610,0.11,-0.47,-0.48,0.68
30.620,0.11,-0.53,-0.45,0.70
30.630,0.04,-0.63,-0.37,0.74
30.640,0.07,-0.66,-0.40,0.77
30.650,-0.03,-0.65,-0.38,0.76
30.660,-0.14,-0.71,-0.37,0.81
30.670,-0.18,-0.79,-0.45,0.92
30.680,-0.15,-0.83,-0.62,1.05
30.690,-0.14,-0.89,-0.76,1.18
30.700,-0.10,-0.94,-0.75,1.21
30.710,-0.08,-0.95,-0.71,1.19
30.719,-0.12,-0.93,-0.66,1.14
30.729,-0.23,-0.95,-0.54,1.12
30.739,-0.33,-0.92,-0.37,1.05
30.749,-0.52,-0.90,-0.15,1.05
30.759,-0.69,-0.86,-0.05,1.10
30.769,-0.80,-0.90,0.01,1.20
30.779,-0.83,-0.93,0.03,1.25
30.789,-0.81,-0.91,-0.04,1.22
30.799,-0.72,-0.98,-0.10,1.22
30.809,-0.70,-1.11,-0.08,1.32
30.819,-0.61,-1.09,0.00,1.25
30.829,-0.59,-1.02,0.06,1.18
30.839,-0.61,-1.03,0.13,1.20
30.849,-0.65,-1.02,0.19,1.22
30.859,-0.59,-0.97,0.20,1.15
30.869,-0.50,-0.93,0.17,1.07
30.879,-0.44,-0.94,0.13,1.04
30.889,-0.33,-0.94,0.04,1.00
30.898,-0.23,-0.93,-0.07,0.96
30.909,-0.20,-1.00,-0.08,1.02
30.918,-0.22,-1.03,-0.01,1.05
30.928,-0.24,-0.99,0.10,1.03
30.938,-0.24,-0.90,0.16,0.95
30.948,-0.31,-0.88,0.25,0.97
30.958,-0.33,-0.89,0.31,1.00
30.968,-0.26,-0.87,0.27,0.95
30.978,-0.14,-0.85,0.16,0.88
30.988,-0.02,-0.83,0.05,0.83
30.998,0.02,-0.86,0.03,0.86
31.008,0.08,-0.89,-0.02,0.89
31.018,0.06,-0.90,-0.08,0.90
31.028,0.10,-0.90,-0.09,0.91
31.038,0.08,-0.86,-0.03,0.86
31.048,0.01,-0.88,0.03,0.88
31.058,-0.07,-0.95,0.02,0.95
31.068,-0.07,-0.95,0.03,0.96
31.077,-0.01,-0.88,-0.02,0.88
31.088,-0.02,-0.89,-0.07,0.90
31.097,-0.11,-0.98,-0.04,0.99
31.108,-0.11,-1.00,-0.00,1.01
31.117,-0.05,-0.95,-0.18,0.97
31.128,0.07,-0.90,-0.34,0.96
31.137,0.07,-0.88,-0.31,0.94
31.147,0.17,-0.89,-0.40,0.99
31.157,0.11,-0.94,-0.40,1.03
31.167,0.12,-0.93,-0.41,1.02
31.177,0.05,-0.86,-0.42,0.95
31.187,0.04,-0.78,-0.53,0.95
31.197,-0.02,-0.76,-0.60,0.97
31.207,-0.05,-0.77,-0.62,1.00
31.217,-0.10,-0.82,-0.56,1.00
31.227,-0.18,-0.83,-0.45,0.96
31.237,-0.33,-0.83,-0.34,0.95
31.247,-0.44,-0.82,-0.31,0.98
31.257,-0.49,-0.84,-0.35,1.04
31.267,-0.44,-0.84,-0.48,1.06
31.277,-0.34,-0.82,-0.55,1.04
31.287,-0.34,-0.90,-0.53,1.10
31.297,-0.39,-0.95,-0.43,1.11
31.307,-0.48,-0.96,-0.37,1.14
31.316,-0.57,-0.93,-0.33,1.14
31.326,-0.68,-0.92,-0.18,1.16
31.336,-0.74,-0.87,-0.04,1.15
31.346,-0.71,-0.87,-0.08,1.12
31.356,-0.63,-0.94,-0.20,1.15
31.366,-0.57,-1.04,-0.24,1.21
31.376,-0.52,-1.04,-0.20,1.18
31.386,-0.46,-1.01,-0.20,1.13
31.396,-0.47,-1.02,-0.17,1.13
31.406,-0.40,-1.00,-0.07,1.08
31.416,-0.36,-0.89,0.01,0.96
31.426,-0.39,-0.89,0.05,0.98
31.436,-0.36,-0.93,0.16,1.01
31.446,-0.36,-0.90,0.24,1.00
31.456,-0.30,-0.85,0.22,0.93
31.466,-0.29,-0.81,0.21,0.89
31.476,-0.22,-0.81,0.17,0.86
31.486,-0.08,-0.81,0.04,0.82
31.495,0.09,-0.83,-0.15,0.84
31.506,0.25,-0.83,-0.28,0.90
31.515,0.35,-0.85,-0.29,0.97
31.525,0.46,-0.86,-0.34,1.03
31.535,0.49,-0.88,-0.41,1.09
31.545,0.44,-0.93,-0.39,1.10
31.555,0.29,-0.99,-0.19,1.05
31.565,0.16,-0.88,-0.14,0.91
31.575,-0.00,-0.90,-0.24,0.93
31.585,-0.06,-0.93,-0.31,0.98
31.595,-0.13,-0.94,-0.25,0.98
31.605,-0.13,-0.90,-0.24,0.94
31.615,-0.15,-0.89,-0.32,0.95
31.625,-0.22,-0.93,-0.37,1.02
31.635,-0.18,-0.88,-0.41,0.99
31.645,-0.20,-0.84,-0.37,0.94
31.655,-0.26,-0.83,-0.32,0.92
31.665,-0.35,-0.84,-0.20,0.93
31.674,-0.41,-0.79,-0.15,0.90
31.685,-0.45,-0.74,-0.20,0.89
31.694,-0.58,-0.75,-0.20,0.96
31.704,-0.64,-0.78,-0.18,1.02
31.714,-0.60,-0.81,-0.30,1.05
31.724,-0.51,-0.83,-0.47,1.09
31.734,-0.47,-0.87,-0.47,1.09
31.744,-0.58,-0.90,-0.25,1.10
31.754,-0.73,-0.85,0.00,1.12
31.764,-0.82,-0.76,0.10,1.12
31.774,-0.84,-0.71,0.04,1.10
31.784,-0.69,-0.61,-0.11,0.93
31.794,-0.41,-0.53,-0.31,0.73
31.804,-0.16,-0.54,-0.42,0.70
31.814,-0.07,-0.63,-0.43,0.76
31.824,-0.04,-0.68,-0.28,0.74
31.834,-0.14,-0.66,-0.08,0.68
31.844,-0.24,-0.53,0.09,0.59
31.854,-0.48,-0.48,0.39,0.78
31.863,-0.60,-0.40,0.58,0.93
31.874,-0.55,-0.31,0.50,0.81
31.884,-0.48,-0.30,0.37,0.68
31.893,-0.31,-0.33,0.29,0.54
31.903,-0.10,-0.36,0.24,0.44
31.913,0.07,-0.39,0.13,0.42
31.923,0.19,-0.38,-0.02,0.43
31.933,0.30,-0.31,-0.04,0.43
31.943,0.32,-0.23,-0.01,0.40
31.953,0.31,-0.18,-0.01,0.36
31.963,0.35,-0.18,-0.03,0.40
31.973,0.38,-0.18,0.03,0.42
31.983,0.34,-0.18,0.06,0.39
31.993,0.26,-0.22,-0.01,0.34
32.003,0.17,-0.32,-0.06,0.37
32.013,0.11,-0.39,-0.02,0.41
32.023,0.10,-0.35,-0.04,0.37
32.033,0.12,-0.35,-0.07,0.38
32.043,0.07,-0.39,-0.13,0.42
32.053,0.11,-0.40,-0.14,0.43
32.063,0.16,-0.33,-0.17,0.40
32.072,0.20,-0.31,-0.24,0.44
32.083,0.18,-0.36,-0.28,0.49
32.092,0.19,-0.36,-0.30,0.51
32.102,0.17,-0.33,-0.27,0.46
32.112,0.07,-0.30,-0.20,0.36
32.122,-0.05,-0.29,-0.14,0.33
32.132,-0.13,-0.28,-0.09,0.32
32.142,-0.26,-0.28,-0.12,0.40
32.152,-0.33,-0.31,-0.14,0.48
32.162,-0.35,-0.34,-0.16,0.52
32.172,-0.35,-0.37,-0.21,0.55
32.182,-0.34,-0.43,-0.27,0.61
32.192,-0.33,-0.53,-0.27,0.68
32.202,-0.31,-0.57,-0.23,0.69
32.212,-0.38,-0.57,-0.12,0.70
32.222,-0.50,-0.61,0.03,0.78
32.232,-0.54,-0.62,0.13,0.84
32.242,-0.58,-0.58,0.18,0.84
32.252,-0.53,-0.50,0.22,0.77
32.262,-0.49,-0.55,0.15,0.75
32.271,-0.34,-0.55,0.07,0.65
32.282,-0.28,-0.55,0.08,0.62
32.291,-0.23,-0.60,0.10,0.65
32.301,-0.12,-0.58,0.05,0.59
32.311,-0.11,-0.50,0.10,0.52
32.321,-0.09,-0.48,0.11,0.50
32.331,-0.03,-0.48,0.05,0.48
32.341,0.03,-0.45,-0.01,0.45
32.351,0.17,-0.36,-0.15,0.42
32.361,0.26,-0.39,-0.22,0.52
32.371,0.33,-0.44,-0.28,0.62
32.381,0.37,-0.39,-0.29,0.61
32.391,0.33,-0.39,-0.27,0.58
32.401,0.27,-0.44,-0.21,0.56
32.411,0.17,-0.40,-0.16,0.46
32.421,0.08,-0.45,-0.21,0.51
32.431,0.00,-0.50,-0.21,0.54
32.441,-0.01,-0.46,-0.18,0.50
32.451,-0.02,-0.44,-0.25,0.50
32.461,-0.04,-0.53,-0.28,0.60
32.470,0.01,-0.57,-0.38,0.69
32.480,-0.00,-0.60,-0.34,0.69
32.490,-0.01,-0.59,-0.28,0.65
32.500,-0.04,-0.59,-0.21,0.63
32.510,-0.10,-0.58,-0.20,0.62
32.520,-0.19,-0.60,-0.16,0.65
32.530,-0.24,-0.62,-0.15,0.68
32.540,-0.39,-0.58,-0.10,0.71
32.550,-0.44,-0.55,-0.10,0.71
32.560,-0.42,-0.53,-0.17,0.70
32.570,-0.37,-0.56,-0.28,0.73
32.580,-0.19,-0.59,-0.44,0.76
32.590,-0.01,-0.59,-0.45,0.75
32.600,0.03,-0.59,-0.35,0.69
32.610,-0.17,-0.75,-0.16,0.79
32.620,-0.41,-0.88,0.16,0.99
32.630,-0.66,-0.82,0.46,1.14
32.640,-0.71,-0.67,0.52,1.11
32.649,-0.58,-0.47,0.33,0.82
32.660,-0.59,-0.47,0.20,0.78
32.669,-0.40,-0.57,-0.02,0.70
32.679,-0.14,-0.70,-0.22,0.74
32.689,0.05,-0.69,-0.24,0.74
32.699,0.14,-0.64,-0.13,0.67
32.709,0.00,-0.61,0.08,0.62
32.719,-0.21,-0.56,0.27,0.66
32.729,-0.28,-0.51,0.35,0.68
32.739,-0.20,-0.40,0.33,0.56
32.749,-0.25,-0.36,0.28,0.52
32.759,-0.19,-0.44,0.12,0.50
32.769,-0.09,-0.50,-0.05,0.51
32.779,0.00,-0.54,-0.17,0.56
32.789,0.13,-0.54,-0.24,0.60
32.799,0.06,-0.52,-0.13,0.54
32.809,-0.02,-0.54,-0.06,0.54
32.819,-0.06,-0.55,-0.07,0.56
32.828,-0.12,-0.52,-0.01,0.53
32.839,-0.07,-0.46,-0.07,0.47
32.849,-0.03,-0.46,-0.12,0.48
32.859,-0.04,-0.52,-0.17,0.55
32.868,0.00,-0.52,-0.22,0.57
32.878,0.02,-0.51,-0.27,0.57
32.888,0.03,-0.49,-0.31,0.58
32.899,0.07,-0.47,-0.35,0.59
32.908,0.00,-0.43,-0.27,0.51
32.918,-0.04,-0.42,-0.20,0.47
32.928,-0.10,-0.39,-0.15,0.43
32.938,-0.13,-0.36,-0.17,0.42
32.948,-0.19,-0.38,-0.16,0.45
32.958,-0.20,-0.37,-0.16,0.45
32.968,-0.17,-0.35,-0.18,0.43
32.978,-0.22,-0.35,-0.10,0.42
32.988,-0.22,-0.35,-0.11,0.43
32.998,-0.24,-0.37,-0.12,0.46
33.008,-0.18,-0.32,-0.10,0.38
33.018,-0.17,-0.30,-0.08,0.35
33.027,-0.14,-0.32,-0.16,0.39
33.038,-0.04,-0.37,-0.26,0.45
33.048,0.02,-0.38,-0.24,0.45
33.058,0.07,-0.39,-0.21,0.45
33.067,-0.00,-0.42,-0.15,0.44
33.077,-0.01,-0.39,-0.11,0.41
33.087,-0.13,-0.42,-0.03,0.44
33.097,-0.11,-0.42,-0.03,0.44
33.107,-0.15,-0.38,0.05,0.41
33.117,-0.15,-0.37,-0.02,0.40
33.127,-0.09,-0.42,-0.10,0.44
33.137,-0.09,-0.48,-0.06,0.49
33.147,-0.01,-0.47,-0.02,0.47
33.157,-0.03,-0.50,-0.04,0.50
33.167,0.01,-0.51,-0.06,0.52
33.177,-0.05,-0.55,0.01,0.55
33.187,-0.02,-0.56,-0.03,0.56
33.197,-0.03,-0.56,-0.04,0.57
33.207,-0.06,-0.58,-0.07,0.58
33.217,0.01,-0.60,-0.12,0.61
33.227,-0.03,-0.63,-0.10,0.64
33.237,-0.03,-0.66,-0.11,0.67
33.246,-0.01,-0.67,-0.13,0.68
33.257,-0.03,-0.67,-0.16,0.69
33.266,-0.01,-0.65,-0.23,0.69
33.276,-0.03,-0.68,-0.23,0.72
33.286,-0.02,-0.63,-0.20,0.66
33.296,-0.09,-0.62,-0.20,0.66
33.306,-0.12,-0.61,-0.22,0.66
33.316,-0.16,-0.53,-0.13,0.57
33.326,-0.28,-0.53,-0.05,0.61
33.336,-0.29,-0.52,-0.09,0.60
33.346,-0.31,-0.50,-0.10,0.59
33.356,-0.31,-0.50,-0.12,0.60
33.366,-0.29,-0.52,-0.11,0.60
33.376,-0.24,-0.52,-0.17,0.60
33.386,-0.27,-0.54,-0.17,0.63
33.396,-0.24,-0.55,-0.16,0.62
33.406,-0.22,-0.51,-0.22,0.60
33.416,-0.22,-0.52,-0.26,0.62
33.425,-0.19,-0.54,-0.24,0.62
33.436,-0.16,-0.52,-0.18,0.57
33.445,-0.11,-0.51,-0.22,0.56
33.456,-0.18,-0.54,-0.18,0.60
33.465,-0.15,-0.51,-0.15,0.56
33.475,-0.17,-0.47,-0.07,0.51
33.485,-0.23,-0.47,-0.02,0.52
33.495,-0.17,-0.47,-0.01,0.50
33.505,-0.14,-0.46,0.00,0.48
33.515,-0.17,-0.45,0.03,0.49
33.525,-0.13,-0.49,0.06,0.51
33.535,-0.07,-0.46,0.06,0.47
33.545,-0.06,-0.45,0.06,0.46
33.555,-0.06,-0.46,0.10,0.48
33.565,-0.03,-0.46,0.13,0.48
33.575,0.05,-0.44,0.09,0.45
33.585,0.05,-0.46,0.00,0.47
33.595,0.10,-0.47,-0.02,0.48
33.605,0.11,-0.50,0.00,0.51
33.615,0.09,-0.53,-0.03,0.53
33.624,0.04,-0.57,-0.01,0.57
33.635,0.04,-0.56,-0.03,0.56
33.644,-0.03,-0.57,-0.04,0.57
33.655,-0.06,-0.58,-0.03,0.58
33.664,-0.11,-0.60,-0.00,0.61
33.674,-0.09,-0.58,-0.08,0.59
33.684,-0.09,-0.62,-0.15,0.64
33.694,-0.10,-0.61,-0.12,0.62
33.704,-0.09,-0.60,-0.12,0.61
33.714,-0.07,-0.59,-0.24,0.64
33.724,-0.06,-0.59,-0.28,0.66
33.734,-0.07,-0.58,-0.26,0.64
33.744,-0.04,-0.54,-0.32,0.62
33.754,-0.04,-0.53,-0.34,0.63
33.764,-0.00,-0.49,-0.35,0.60
33.774,-0.06,-0.49,-0.39,0.63
33.784,-0.11,-0.47,-0.40,0.62
33.794,-0.14,-0.47,-0.30,0.58
33.804,-0.25,-0.48,-0.23,0.59
33.814,-0.32,-0.45,-0.23,0.60
33.824,-0.36,-0.46,-0.23,0.63
33.834,-0.37,-0.44,-0.23,0.62
33.843,-0.41,-0.47,-0.19,0.65
33.854,-0.31,-0.43,-0.23,0.58
33.863,-0.26,-0.43,-0.31,0.59
33.873,-0.24,-0.41,-0.28,0.55
33.883,-0.27,-0.39,-0.19,0.51
33.893,-0.27,-0.39,-0.16,0.50
33.903,-0.28,-0.33,-0.12,0.45
33.913,-0.39,-0.34,0.01,0.51
33.923,-0.40,-0.32,0.05,0.51
33.933,-0.36,-0.29,0.09,0.47
33.943,-0.33,-0.26,0.11,0.44
33.953,-0.31,-0.32,0.11,0.46
33.963,-0.24,-0.35,0.09,0.43
33.973,-0.15,-0.33,0.11,0.38
33.983,-0.10,-0.31,0.11,0.34
33.993,-0.05,-0.34,0.05,0.35
34.003,0.01,-0.31,0.05,0.32
34.013,0.11,-0.24,0.06,0.27
34.023,0.15,-0.25,0.06,0.30
34.033,0.22,-0.29,0.07,0.37
34.042,0.24,-0.24,0.10,0.35
34.053,0.22,-0.18,0.11,0.30
34.062,0.21,-0.16,0.06,0.27
34.072,0.24,-0.16,0.06,0.29
34.082,0.20,-0.14,0.14,0.28
34.092,0.21,-0.09,0.19,0.30
34.102,0.19,-0.10,0.22,0.31
34.112,0.20,-0.05,0.19,0.28
34.122,0.18,-0.01,0.18,0.26
34.132,0.19,-0.04,0.16,0.26
34.142,0.22,-0.02,0.15,0.27
34.152,0.19,-0.01,0.13,0.23
34.162,0.17,-0.02,0.08,0.19
34.172,0.15,-0.04,0.04,0.16
34.182,0.17,0.01,0.02,0.17
34.192,0.10,-0.01,-0.02,0.11
34.202,0.14,-0.05,-0.10,0.18
34.212,0.18,-0.08,-0.15,0.25
34.221,0.19,-0.10,-0.16,0.26
34.232,0.15,-0.14,-0.18,0.27
34.241,0.12,-0.14,-0.18,0.26
34.251,0.04,-0.15,-0.17,0.23
34.261,-0.05,-0.18,-0.14,0.23
34.271,-0.10,-0.20,-0.11,0.25
34.281,-0.14,-0.18,-0.07,0.24
34.291,-0.18,-0.16,-0.03,0.24
34.301,-0.19,-0.11,-0.05,0.23
34.311,-0.21,-0.09,-0.10,0.25
34.321,-0.15,-0.06,-0.07,0.17
34.331,-0.16,0.02,-0.02,0.17
34.341,-0.21,0.01,-0.06,0.22
34.351,-0.18,0.04,-0.09,0.21
34.361,-0.17,0.09,-0.07,0.21
34.371,-0.19,0.09,-0.02,0.21
34.381,-0.19,0.10,0.00,0.21
34.391,-0.25,0.11,-0.05,0.27
34.401,-0.25,0.17,0.01,0.30
34.411,-0.18,0.17,-0.07,0.26
34.420,-0.17,0.14,-0.11,0.25
34.431,-0.06,0.12,-0.16,0.21
34.440,-0.09,0.01,-0.23,0.25
34.450,-0.06,-0.07,-0.28,0.30
34.460,0.03,-0.09,-0.17,0.20
34.470,-0.08,-0.07,-0.07,0.13
34.480,-0.07,-0.12,-0.07,0.15
34.490,-0.03,-0.19,-0.04,0.20
34.500,0.01,-0.13,-0.00,0.13
34.510,-0.08,-0.12,-0.00,0.14
34.520,-0.11,-0.12,0.03,0.17
34.530,-0.04,-0.11,0.02,0.12
34.540,0.04,-0.10,0.03,0.11
34.550,0.03,-0.17,0.00,0.17
34.560,0.11,-0.13,0.02,0.17
34.570,0.14,-0.07,0.09,0.18
34.580,0.24,-0.13,0.13,0.31
34.590,0.29,-0.11,0.06,0.31
34.600,0.14,-0.02,-0.03,0.15
34.610,0.19,0.03,-0.01,0.19
34.619,0.14,-0.10,0.03,0.18
34.630,0.21,-0.16,-0.01,0.27
34.639,0.25,-0.21,-0.01,0.33
34.649,0.24,-0.13,0.00,0.27
34.659,0.03,-0.13,0.05,0.14
34.669,-0.00,-0.11,0.06,0.13
34.679,-0.04,-0.07,0.08,0.12
34.689,-0.15,-0.08,0.05,0.18
34.699,-0.18,-0.23,0.07,0.30
34.709,-0.09,-0.18,0.15,0.25
34.719,-0.08,-0.13,0.15,0.22
34.729,-0.15,-0.17,0.09,0.24
34.739,-0.16,-0.03,0.22,0.27
34.749,-0.16,-0.01,0.22,0.28
34.759,-0.23,-0.02,0.16,0.28
34.769,-0.16,-0.14,0.20,0.29
34.779,-0.12,-0.16,0.13,0.24
34.789,-0.01,-0.20,0.02,0.20
34.799,-0.01,-0.23,0.01,0.23
34.809,0.01,-0.28,-0.01,0.28
34.818,0.09,-0.30,-0.04,0.32
34.828,0.15,-0.28,-0.06,0.33
34.838,0.11,-0.40,-0.03,0.42
34.848,0.11,-0.43,-0.01,0.44
34.858,0.08,-0.36,-0.02,0.37
34.868,0.04,-0.36,-0.06,0.37
34.878,-0.05,-0.43,-0.11,0.45
34.888,0.05,-0.37,-0.12,0.39
34.898,0.09,-0.34,-0.15,0.39
34.908,0.10,-0.41,-0.15,0.45
34.918,0.10,-0.49,-0.14,0.51
34.928,0.16,-0.42,-0.16,0.48
34.938,0.10,-0.36,-0.14,0.40
34.948,0.06,-0.41,-0.11,0.43
34.958,0.06,-0.40,-0.17,0.44
34.968,0.08,-0.36,-0.21,0.43
34.977,0.02,-0.29,-0.18,0.34
34.988,-0.06,-0.26,-0.15,0.31
34.997,-0.13,-0.17,-0.20,0.29
35.007,-0.12,-0.15,-0.27,0.33
35.017,-0.12,-0.21,-0.23,0.33
35.027,-0.15,-0.22,-0.14,0.30
35.037,-0.17,-0.20,-0.13,0.29
35.047,-0.11,-0.22,-0.26,0.36
35.057,-0.15,-0.29,-0.30,0.45
35.067,-0.18,-0.31,-0.23,0.42
35.077,-0.19,-0.30,-0.15,0.39
35.087,-0.26,-0.28,-0.13,0.40
35.097,-0.32,-0.32,-0.10,0.46
35.107,-0.33,-0.33,-0.03,0.46
35.117,-0.31,-0.34,0.03,0.46
35.127,-0.33,-0.35,0.02,0.49
35.137,-0.30,-0.40,0.02,0.50
35.147,-0.21,-0.37,0.03,0.42
35.157,-0.18,-0.37,-0.00,0.41
35.167,-0.19,-0.42,-0.02,0.46
35.177,-0.14,-0.43,0.00,0.46
35.187,-0.05,-0.41,0.00,0.41
35.196,-0.00,-0.39,-0.04,0.39
35.207,-0.03,-0.41,-0.00,0.41
35.216,0.00,-0.41,0.08,0.42
35.226,0.02,-0.35,0.06,0.36
35.236,0.03,-0.36,0.01,0.36
35.246,0.05,-0.39,-0.02,0.40
35.256,0.11,-0.40,-0.05,0.42
35.266,0.14,-0.41,-0.03,0.44
35.276,0.13,-0.44,-0.04,0.46
35.286,0.14,-0.41,-0.01,0.44
35.296,0.17,-0.37,-0.03,0.41
35.306,0.20,-0.34,-0.06,0.40
35.316,0.18,-0.36,-0.05,0.40
35.326,0.18,-0.33,0.04,0.38
35.336,0.18,-0.29,0.08,0.35
35.346,0.20,-0.25,-0.00,0.32
35.356,0.20,-0.29,0.01,0.35
35.366,0.16,-0.32,0.05,0.36
35.376,0.14,-0.28,0.11,0.33
35.386,0.07,-0.22,0.12,0.26
35.395,-0.02,-0.21,0.07,0.22
35.406,-0.04,-0.17,0.06,0.19
35.415,-0.06,-0.12,0.04,0.14
35.426,-0.03,-0.16,0.02,0.16
35.435,-0.07,-0.25,0.02,0.26
35.445,-0.09,-0.24,0.01,0.25
35.455,-0.14,-0.19,-0.06,0.25
35.465,-0.16,-0.27,-0.12,0.33
35.475,-0.13,-0.35,-0.09,0.39
35.485,-0.04,-0.34,-0.04,0.35
35.495,0.02,-0.35,-0.08,0.36
35.505,0.03,-0.39,-0.15,0.42
35.515,-0.02,-0.44,-0.11,0.46
35.525,-0.14,-0.33,-0.04,0.36
35.535,-0.17,-0.22,-0.10,0.30
35.545,-0.20,-0.19,-0.13,0.31
35.555,-0.23,-0.21,-0.08,0.32
35.565,-0.20,-0.19,-0.06,0.28
35.574,-0.20,-0.16,-0.12,0.28
35.585,-0.21,-0.17,-0.14,0.30
35.594,-0.19,-0.14,-0.12,0.26
35.605,-0.17,-0.09,-0.13,0.23
35.614,-0.19,-0.12,-0.18,0.29
35.625,-0.21,-0.18,-0.18,0.33
35.634,-0.18,-0.16,-0.12,0.28
35.644,-0.17,-0.13,-0.09,0.23
35.654,-0.20,-0.19,-0.08,0.29
35.664,-0.17,-0.20,-0.04,0.27
35.674,-0.17,-0.13,-0.03,0.21
35.684,-0.08,-0.15,-0.02,0.17
35.694,0.06,-0.23,-0.11,0.26
35.704,-0.01,-0.40,-0.14,0.42
35.714,-0.04,-0.17,-0.07,0.18
35.724,0.09,-0.21,0.05,0.24
35.734,0.12,-0.18,0.09,0.24
35.744,0.18,-0.26,0.06,0.32
35.754,0.17,-0.28,0.08,0.33
35.764,0.10,-0.20,0.10,0.24
35.774,0.00,-0.17,0.10,0.20
35.784,-0.02,-0.17,0.15,0.22
35.793,0.02,-0.15,0.15,0.21
35.803,0.03,-0.10,0.13,0.16
35.813,0.04,-0.08,0.16,0.18
35.823,0.04,-0.13,0.19,0.24
35.833,0.04,-0.18,0.12,0.22
35.843,0.17,-0.20,0.01,0.26
35.853,0.21,-0.26,0.01,0.34
35.863,0.22,-0.31,0.08,0.39
35.873,0.22,-0.31,0.11,0.40
35.883,0.24,-0.23,-0.01,0.33
35.893,0.16,-0.16,-0.03,0.23
35.903,-0.01,-0.14,0.04,0.15
35.913,-0.06,-0.06,0.04,0.09
35.923,-0.09,-0.04,-0.06,0.11
35.933,-0.14,-0.10,-0.07,0.19
35.943,-0.18,-0.11,-0.04,0.22
35.953,-0.19,-0.11,-0.06,0.23
35.963,-0.11,-0.10,-0.15,0.21
35.973,-0.14,-0.15,-0.17,0.27
35.983,-0.11,-0.16,-0.14,0.24
35.992,-0.08,-0.15,-0.07,0.18
36.003,-0.05,-0.11,-0.11,0.16
36.012,-0.06,-0.12,-0.13,0.19
36.022,-0.05,-0.13,-0.13,0.19
36.032,-0.01,-0.17,-0.11,0.20
36.042,0.04,-0.18,-0.18,0.26
36.052,0.00,-0.22,-0.14,0.26
36.062,-0.04,-0.15,0.02,0.16
36.072,-0.06,-0.10,0.02,0.12
36.082,0.00,-0.07,-0.04,0.08
36.092,-0.01,-0.13,-0.07,0.15
36.102,-0.06,-0.15,-0.01,0.17
36.112,-0.08,-0.14,0.05,0.17
36.122,-0.04,-0.09,-0.01,0.10
36.132,0.02,-0.08,-0.01,0.08
36.142,0.01,-0.10,0.08,0.13
36.152,0.07,-0.07,0.12,0.16
36.162,0.08,-0.08,0.07,0.13
36.171,0.09,-0.06,0.01,0.11
36.182,0.05,-0.07,0.07,0.11
36.191,0.09,-0.06,0.06,0.12
36.201,0.12,-0.04,-0.02,0.13
36.211,0.09,-0.05,-0.04,0.11
36.221,0.04,-0.04,0.05,0.08
36.231,0.06,-0.07,0.04,0.10
36.241,0.05,-0.06,-0.03,0.08
36.251,0.05,-0.06,-0.01,0.08
36.261,-0.04,-0.09,0.06,0.12
36.271,-0.05,-0.10,0.07,0.13
36.281,0.01,-0.11,0.02,0.11
36.291,0.02,-0.08,-0.03,0.09
36.301,-0.01,-0.06,0.01,0.06
36.311,-0.02,-0.08,-0.01,0.09
36.321,0.05,-0.07,-0.09,0.13
36.331,0.08,-0.10,-0.09,0.16
36.341,0.03,-0.09,-0.00,0.10
36.351,0.00,-0.06,0.02,0.07
36.361,0.02,-0.05,-0.07,0.09
36.371,0.04,-0.07,-0.15,0.16
36.381,0.05,-0.10,-0.08,0.14
36.390,0.03,-0.12,0.01,0.12
36.401,0.09,-0.11,-0.01,0.14
36.410,0.13,-0.10,-0.05,0.17
36.420,0.12,-0.07,-0.02,0.14
36.430,0.11,-0.07,0.01,0.13
36.440,0.09,-0.06,-0.01,0.11
36.450,0.08,-0.05,0.01,0.10
36.460,0.01,-0.06,0.08,0.10
36.470,-0.08,-0.05,0.14,0.17
36.480,-0.05,0.01,0.18,0.19
36.490,-0.05,0.04,0.12,0.14
36.500,0.00,-0.01,0.07,0.07
36.510,-0.02,-0.02,0.13,0.13
36.520,0.04,-0.01,0.09,0.10
36.530,0.05,-0.04,0.02,0.07
36.540,-0.01,-0.04,0.05,0.07
36.550,-0.09,-0.03,0.14,0.17
36.560,-0.13,-0.05,0.07,0.15
36.569,-0.07,-0.08,-0.02,0.11
36.579,-0.00,-0.06,0.02,0.06
36.589,0.02,-0.08,0.04,0.09
36.599,0.08,-0.08,-0.03,0.12
36.609,0.11,-0.11,-0.13,0.21
36.619,0.11,-0.14,-0.15,0.23
36.629,0.06,-0.10,-0.13,0.18
36.639,0.03,-0.12,-0.07,0.14
36.649,0.05,-0.11,-0.11,0.16
36.659,0.11,-0.09,-0.11,0.18
36.669,0.08,-0.10,-0.04,0.14
36.679,0.05,-0.08,0.05,0.11
36.689,0.11,-0.06,-0.02,0.13
36.699,0.15,-0.03,-0.07,0.17
36.709,0.12,-0.05,-0.03,0.13
36.719,0.14,-0.07,-0.02,0.16
36.729,0.11,-0.06,-0.03,0.13
36.739,0.16,-0.03,-0.11,0.19
36.749,0.04,-0.01,0.00,0.04
36.759,-0.04,-0.01,0.12,0.12
36.768,-0.08,-0.00,0.12,0.15
36.779,-0.06,-0.01,0.05,0.08
36.788,-0.08,0.01,0.09,0.12
36.798,-0.12,-0.01,0.17,0.21
36.808,-0.08,0.01,0.12,0.15
36.818,-0.05,-0.00,-0.01,0.05
36.828,-0.02,-0.00,-0.01,0.03
36.838,-0.10,0.00,0.05,0.11
36.848,-0.12,0.02,0.08,0.15
36.858,-0.14,0.02,0.02,0.14
36.868,-0.10,0.02,0.02,0.10
36.878,-0.17,0.00,0.09,0.20
36.888,-0.15,-0.02,0.13,0.20
36.898,-0.09,0.01,0.07,0.12
36.908,-0.04,0.03,0.04,0.06
36.918,-0.01,0.02,0.09,0.09
36.928,0.06,0.02,0.10,0.11
36.938,0.12,0.02,-0.00,0.12
36.948,0.17,0.02,-0.08,0.19
36.958,0.16,0.00,-0.04,0.16
36.968,0.15,0.01,0.00,0.15
36.978,0.15,0.01,-0.03,0.15
36.987,0.14,-0.01,-0.03,0.15
36.997,0.11,-0.02,0.04,0.12
37.007,0.11,-0.02,0.08,0.14
37.017,0.12,-0.05,0.03,0.13
37.027,0.17,-0.02,-0.03,0.18
37.037,0.17,0.01,0.00,0.17
37.047,0.19,-0.07,0.03,0.20
37.057,0.21,-0.07,-0.01,0.22
37.067,0.18,-0.03,-0.03,0.19
37.077,0.13,-0.03,0.05,0.14
37.087,0.12,-0.02,0.09,0.15
37.097,0.11,-0.01,0.09,0.14
37.107,0.11,0.03,-0.01,0.11
37.117,0.05,0.08,0.02,0.10
37.127,0.11,-0.00,0.07,0.13
37.137,0.09,-0.01,0.04,0.10
37.146,0.16,-0.01,-0.05,0.17
37.157,0.16,-0.04,-0.10,0.19
37.166,0.05,-0.08,-0.02,0.10
37.177,0.04,-0.07,0.05,0.10
37.186,0.09,-0.07,-0.02,0.12
37.196,0.11,-0.06,-0.04,0.13
37.206,0.02,-0.11,0.03,0.11
37.216,0.01,-0.13,0.10,0.16
37.226,0.00,-0.04,0.04,0.06
37.236,0.03,0.02,-0.01,0.04
37.246,-0.01,-0.04,0.01,0.04
37.256,-0.07,-0.03,0.08,0.11
37.266,-0.08,-0.02,0.12,0.14
37.276,-0.08,0.01,0.04,0.09
37.286,-0.12,-0.00,0.04,0.13
37.296,-0.16,-0.05,0.08,0.19
37.306,-0.16,-0.06,0.08,0.19
37.316,-0.11,-0.05,0.01,0.12
37.326,-0.15,-0.05,-0.03,0.16
37.336,-0.13,-0.07,0.01,0.15
37.345,-0.04,-0.10,-0.02,0.11
37.356,0.04,-0.12,-0.08,0.15
37.365,0.07,-0.12,-0.03,0.14
37.375,-0.01,-0.09,0.05,0.10
37.385,-0.04,-0.02,0.02,0.05
37.395,-0.06,0.04,-0.06,0.09
37.405,-0.08,0.02,-0.12,0.14
37.415,-0.09,-0.02,-0.06,0.11
37.425,-0.10,-0.03,0.03,0.11
37.435,-0.06,-0.05,-0.04,0.08
37.445,0.08,-0.04,-0.11,0.14
37.455,0.09,-0.06,-0.05,0.12
37.465,0.09,-0.07,0.06,0.13
37.475,0.10,-0.04,0.05,0.12
37.485,0.08,-0.06,-0.02,0.10
37.495,-0.01,-0.10,0.02,0.10
37.505,-0.04,-0.14,0.12,0.19
37.515,-0.02,-0.12,0.07,0.14
37.525,0.05,-0.12,-0.02,0.14
37.535,0.11,-0.16,-0.01,0.19
37.545,0.14,-0.19,0.04,0.24
37.555,0.17,-0.18,0.00,0.25
37.564,0.20,-0.14,-0.06,0.25
37.575,0.21,-0.08,-0.03,0.23
37.584,0.07,-0.06,0.07,0.11
37.594,0.01,-0.05,0.03,0.06
37.604,0.05,-0.02,-0.07,0.09
37.614,0.04,-0.02,-0.08,0.09
37.624,-0.00,-0.08,0.01,0.08
37.634,-0.01,-0.08,0.05,0.10
37.644,0.01,-0.09,-0.00,0.09
37.654,0.05,-0.11,-0.01,0.12
37.664,-0.02,-0.09,0.07,0.12
37.674,-0.06,-0.12,0.09,0.16
37.684,-0.01,-0.12,0.03,0.13
37.694,0.08,-0.09,-0.06,0.14
37.704,0.03,-0.09,-0.01,0.10
37.714,0.02,-0.13,0.04,0.14
37.724,0.03,-0.10,0.01,0.11
37.734,0.07,-0.07,-0.03,0.11
37.743,0.05,-0.04,0.03,0.07
37.754,-0.03,-0.02,0.17,0.17
37.763,-0.02,0.01,0.13,0.13
37.773,0.05,0.02,0.01,0.06
37.783,0.07,-0.01,0.00,0.07
37.793,0.05,0.02,0.12,0.14
37.803,0.06,0.02,0.15,0.16
37.813,0.09,0.02,0.08,0.12
37.823,0.11,0.03,0.07,0.13
37.833,0.06,0.02,0.11,0.12
37.843,0.07,0.02,0.15,0.17
37.853,0.08,0.06,0.12,0.16
37.863,0.06,0.11,0.08,0.15
37.873,0.02,0.09,0.08,0.12
37.883,-0.03,0.08,0.13,0.16
37.893,-0.01,0.10,0.13,0.17
37.903,0.01,0.14,0.02,0.14
37.913,-0.04,0.11,0.03,0.12
37.923,-0.04,0.08,0.09,0.13
37.933,0.02,0.04,0.04,0.06
37.942,0.07,0.06,-0.05,0.10
37.953,0.06,0.06,-0.03,0.09
37.962,-0.06,0.04,0.04,0.08
37.973,-0.04,0.04,0.03,0.06
37.982,-0.02,0.04,-0.08,0.09
37.992,-0.07,0.05,-0.05,0.11
38.002,-0.10,0.04,0.03,0.11
38.012,-0.12,0.06,0.02,0.13
38.022,-0.07,0.07,-0.04,0.11
38.032,0.01,0.11,-0.08,0.14
38.042,-0.02,0.11,-0.07,0.14
38.052,-0.04,0.10,-0.06,0.13
38.062,0.02,0.14,-0.07,0.16
38.072,0.05,0.10,-0.11,0.16
38.082,0.03,0.08,-0.03,0.09
38.092,-0.02,0.09,0.01,0.09
38.102,0.02,0.08,-0.00,0.08
38.112,0.05,0.02,-0.04,0.07
38.121,0.08,0.03,-0.01,0.09
38.132,0.05,0.00,0.06,0.07
38.142,0.09,-0.03,0.04,0.10
38.152,0.11,-0.00,0.04,0.11
38.161,0.13,0.02,0.03,0.13
38.171,0.09,-0.01,0.10,0.13
38.181,0.09,0.00,0.15,0.18
38.191,0.16,0.03,0.11,0.20
38.201,0.17,0.03,0.10,0.20
38.211,0.13,0.04,0.20,0.25
38.221,0.12,0.05,0.24,0.27
38.231,0.16,0.07,0.14,0.23
38.241,0.21,0.09,0.07,0.24
38.251,0.21,0.09,0.13,0.26
38.261,0.12,0.08,0.22,0.26
38.271,0.15,0.11,0.17,0.26
38.281,0.14,0.13,0.13,0.24
38.291,0.08,0.15,0.18,0.24
38.301,0.00,0.17,0.27,0.32
38.311,0.03,0.20,0.21,0.29
38.321,0.03,0.22,0.09,0.24
38.331,0.05,0.26,0.07,0.28
38.340,0.03,0.23,0.13,0.27
38.351,0.03,0.20,0.09,0.22
38.361,0.09,0.17,0.02,0.19
38.370,0.12,0.19,-0.05,0.23
38.380,0.07,0.14,0.01,0.16
38.390,0.02,0.10,0.07,0.12
38.400,0.03,0.12,-0.04,0.13
38.410,0.05,0.08,-0.18,0.20
38.420,0.03,-0.00,-0.20,0.20
38.430,0.01,-0.07,-0.12,0.14
38.440,-0.04,-0.12,-0.12,0.17
38.450,-0.05,-0.16,-0.22,0.27
38.460,-0.09,-0.25,-0.24,0.36
38.470,-0.16,-0.29,-0.15,0.37
38.480,-0.18,-0.28,-0.11,0.35
38.490,-0.11,-0.30,-0.25,0.40
38.500,-0.04,-0.35,-0.35,0.50
38.510,-0.03,-0.37,-0.28,0.46
38.520,0.02,-0.35,-0.23,0.42
38.530,0.04,-0.31,-0.29,0.43
38.539,0.02,-0.27,-0.30,0.40
38.549,-0.01,-0.24,-0.16,0.29
38.559,-0.05,-0.22,-0.03,0.23
38.569,-0.02,-0.16,-0.04,0.17
38.579,-0.01,-0.09,-0.07,0.11
38.589,-0.03,-0.04,-0.03,0.06
38.599,-0.07,-0.02,0.03,0.08
38.609,-0.05,0.02,0.03,0.06
38.619,0.01,0.04,-0.01,0.04
38.629,-0.01,0.06,0.03,0.07
38.639,-0.04,0.08,0.12,0.15
38.649,0.00,0.12,0.19,0.22
38.659,0.05,0.13,0.14,0.20
38.669,0.05,0.14,0.11,0.19
38.679,-0.01,0.13,0.16,0.21
38.689,-0.06,0.13,0.21,0.26
38.699,-0.05,0.10,0.16,0.20
38.709,-0.01,0.08,0.10,0.13
38.719,-0.02,0.01,0.17,0.17
38.729,0.04,-0.06,0.23,0.24
38.739,0.08,-0.08,0.20,0.23
38.749,0.14,-0.07,0.11,0.20
38.758,0.13,-0.07,0.13,0.20
38.768,0.11,-0.08,0.16,0.21
38.778,0.11,-0.06,0.12,0.18
38.788,0.17,-0.05,0.06,0.19
38.798,0.15,-0.02,0.07,0.16
38.808,0.11,-0.03,0.15,0.19
38.818,0.16,0.03,0.16,0.23
38.828,0.19,0.07,0.08,0.22
38.838,0.21,0.06,0.06,0.23
38.848,0.16,0.06,0.14,0.22
38.858,0.17,0.08,0.09,0.21
38.868,0.16,0.08,-0.02,0.18
38.878,0.12,0.09,-0.01,0.15
38.888,0.08,0.08,0.10,0.16
38.898,0.05,0.07,0.10,0.13
38.908,0.08,0.07,-0.02,0.11
38.917,0.10,0.06,-0.03,0.12
38.928,0.04,0.07,0.05,0.09
38.937,-0.04,0.06,0.07,0.10
38.947,-0.04,0.04,-0.01,0.06
38.957,-0.02,0.08,-0.08,0.12
38.967,-0.06,0.08,-0.04,0.11
38.977,-0.09,0.05,0.03,0.11
38.987,-0.09,0.03,0.03,0.10
38.997,-0.07,0.05,-0.07,0.11
39.007,-0.10,0.06,-0.10,0.15
39.017,-0.17,0.04,-0.03,0.17
39.027,-0.13,0.04,-0.00,0.14
39.037,-0.09,0.04,-0.07,0.12
39.047,-0.05,0.05,-0.11,0.13
39.057,-0.08,0.06,-0.03,0.10
39.067,-0.07,0.08,0.05,0.12
39.077,-0.04,0.07,-0.03,0.09
39.087,0.06,0.06,-0.10,0.13
39.097,0.05,0.04,-0.03,0.07
39.107,0.02,0.02,0.07,0.08
39.116,0.01,0.05,0.04,0.06
39.126,0.06,0.05,-0.01,0.08
39.136,0.07,0.03,-0.01,0.07
39.146,0.04,0.05,0.09,0.11
39.156,0.09,0.02,0.09,0.13
39.166,0.14,0.04,-0.03,0.15
39.176,0.17,0.02,-0.04,0.17
39.186,0.17,-0.02,0.05,0.18
39.196,0.17,-0.05,0.07,0.19
39.206,0.22,-0.04,0.01,0.23
39.216,0.21,-0.02,-0.01,0.22
39.226,0.13,-0.02,0.07,0.15
39.236,0.07,-0.04,0.14,0.17
39.246,0.09,-0.01,0.10,0.13
39.256,0.11,0.02,-0.02,0.11
39.266,0.08,-0.01,0.02,0.08
39.276,0.06,-0.06,0.11,0.14
39.286,0.09,-0.06,0.04,0.12
39.296,0.07,0.01,-0.08,0.11
39.306,-0.02,0.01,-0.01,0.02
39.315,-0.03,-0.05,0.11,0.13
39.325,-0.09,0.03,0.08,0.13
39.335,-0.01,0.03,0.02,0.03
39.345,-0.05,-0.02,-0.04,0.06
39.355,-0.07,-0.03,0.06,0.10
39.365,-0.04,-0.06,0.03,0.08
39.375,0.02,-0.10,-0.05,0.12
39.385,0.06,-0.08,-0.07,0.12
39.395,-0.02,-0.06,0.04,0.07
39.405,-0.04,-0.04,0.03,0.06
39.415,0.00,-0.01,-0.09,0.09
39.425,-0.01,0.00,-0.12,0.12
39.435,-0.07,-0.00,-0.01,0.07
39.445,-0.10,-0.05,0.04,0.12
39.455,-0.02,-0.08,-0.01,0.08
39.465,0.05,-0.07,-0.10,0.13
39.475,0.07,-0.08,-0.08,0.14
39.485,0.04,-0.11,0.01,0.12
39.495,0.04,-0.13,-0.01,0.14
39.505,0.07,-0.11,-0.08,0.15
39.514,0.02,-0.09,-0.02,0.09
39.525,-0.06,-0.10,0.05,0.13
39.534,-0.06,-0.10,0.03,0.12
39.545,-0.02,-0.10,-0.07,0.13
39.554,0.04,-0.08,-0.09,0.13
39.564,0.01,-0.10,0.02,0.10
39.574,-0.02,-0.15,0.05,0.16
39.584,0.02,-0.14,-0.08,0.16
39.594,0.03,-0.08,-0.14,0.17
39.604,-0.02,-0.12,-0.10,0.15
39.614,-0.08,-0.19,-0.02,0.20
39.624,-0.09,-0.20,-0.01,0.22
39.634,-0.04,-0.22,-0.06,0.23
39.644,-0.08,-0.20,-0.00,0.22
39.654,-0.10,-0.23,0.04,0.25
39.664,-0.05,-0.23,-0.00,0.23
39.674,0.02,-0.21,-0.08,0.22
39.684,0.04,-0.22,-0.06,0.23
39.693,0.03,-0.24,0.02,0.24
39.704,0.01,-0.26,0.06,0.27
39.713,0.10,-0.23,0.03,0.25
39.724,0.14,-0.17,0.02,0.22
39.733,0.00,-0.15,0.06,0.17
39.743,-0.02,-0.14,0.10,0.17
39.753,-0.05,-0.11,0.04,0.13
39.763,-0.00,-0.08,-0.04,0.09
39.773,-0.03,-0.10,0.02,0.10
39.783,-0.04,-0.14,0.09,0.17
39.793,0.00,-0.13,0.01,0.13
39.803,0.04,-0.13,-0.07,0.15
39.813,0.04,-0.15,-0.04,0.16
39.823,0.01,-0.17,0.03,0.18
39.833,0.01,-0.21,0.01,0.21
39.843,0.04,-0.19,-0.07,0.21
39.853,-0.00,-0.16,-0.06,0.18
39.863,-0.10,-0.14,0.04,0.17
39.873,-0.13,-0.14,0.00,0.19
39.883,-0.05,-0.17,-0.03,0.18
39.893,-0.02,-0.15,-0.02,0.15
39.903,-0.03,-0.19,0.05,0.20
39.912,-0.03,-0.20,0.08,0.21
39.923,0.03,-0.19,0.00,0.19
39.932,0.10,-0.15,-0.04,0.18
39.943,0.07,-0.16,0.01,0.17
39.952,-0.01,-0.16,0.05,0.17
39.962,0.03,-0.14,0.04,0.15
39.972,0.06,-0.07,-0.03,0.10
39.982,0.00,-0.03,-0.01,0.04
39.992,-0.03,-0.07,0.06,0.10
40.002,0.03,-0.08,0.06,0.11
40.012,0.07,-0.09,-0.06,0.13
40.022,0.11,-0.07,-0.10,0.16
40.032,0.04,-0.11,-0.01,0.12
40.042,0.01,-0.14,0.00,0.14
40.052,0.05,-0.13,-0.06,0.15
40.062,0.08,-0.11,-0.06,0.15
40.072,0.01,-0.12,0.02,0.12
40.082,-0.06,-0.11,0.05,0.14
40.091,-0.07,-0.10,-0.01,0.12
40.102,-0.06,-0.09,-0.06,0.12
40.112,-0.12,-0.08,0.02,0.15
40.121,-0.15,-0.10,0.08,0.19
40.131,-0.08,-0.07,0.00,0.11
40.141,-0.04,-0.05,-0.10,0.12
40.151,-0.02,-0.04,-0.10,0.11
40.161,-0.08,-0.08,-0.00,0.12
40.171,-0.06,-0.07,-0.03,0.10
40.181,-0.04,-0.05,-0.11,0.13
40.191,-0.02,-0.05,-0.07,0.09
40.201,-0.07,-0.06,0.04,0.10
40.211,-0.06,-0.07,0.03,0.10
40.221,-0.03,-0.08,-0.05,0.09
40.231,0.04,-0.07,-0.06,0.10
40.241,0.02,-0.09,0.04,0.10
40.251,-0.04,-0.13,0.07,0.15
40.261,0.02,-0.09,-0.01,0.10
40.271,0.07,-0.08,-0.06,0.13
40.281,0.08,-0.09,-0.01,0.12
40.290,0.06,-0.15,0.10,0.19
40.301,0.08,-0.11,0.06,0.15
40.310,0.12,-0.10,-0.03,0.16
40.320,0.12,-0.06,-0.00,0.13
40.330,0.02,-0.07,0.10,0.12
40.340,-0.00,-0.05,0.10,0.11
40.350,-0.02,0.00,-0.00,0.02
40.360,-0.00,-0.00,0.02,0.02
40.370,-0.10,0.11,0.15,0.21
40.380,0.07,-0.03,0.14,0.16
40.390,-0.05,-0.05,0.01,0.07
40.400,0.13,0.01,-0.11,0.17
40.410,0.13,-0.08,0.04,0.16
40.420,0.12,-0.12,0.15,0.22
40.430,0.16,-0.14,0.07,0.22
40.440,0.15,-0.05,-0.06,0.17
40.450,0.07,-0.02,-0.04,0.09
40.460,-0.03,-0.01,0.04,0.05
40.470,-0.09,-0.03,0.01,0.09
40.480,-0.07,0.00,-0.10,0.12
40.490,-0.04,0.01,-0.07,0.08
40.500,-0.11,0.03,0.06,0.13
40.509,-0.06,-0.00,0.04,0.07
40.519,-0.00,-0.01,-0.06,0.06
40.529,0.05,0.01,-0.08,0.10
40.539,0.00,0.01,0.02,0.02
40.549,0.01,-0.04,0.04,0.06
40.559,-0.00,-0.00,-0.03,0.03
40.569,0.05,-0.01,-0.05,0.08
40.579,0.04,-0.01,0.02,0.05
40.589,-0.01,-0.04,0.10,0.11
40.599,0.03,-0.05,0.07,0.09
40.609,0.08,-0.01,-0.01,0.08
40.619,0.14,-0.02,-0.00,0.14
40.629,0.05,-0.05,0.09,0.12
40.639,0.05,-0.05,0.04,0.08
40.649,0.09,-0.05,-0.08,0.13
40.659,0.14,-0.06,-0.05,0.16
40.669,0.07,-0.05,0.07,0.12
40.679,0.02,-0.07,0.07,0.10
40.689,0.07,-0.07,-0.05,0.11
40.699,0.11,-0.01,-0.05,0.12
40.709,0.04,-0.01,0.05,0.07
40.719,-0.02,-0.06,0.10,0.11
40.728,0.01,-0.04,0.03,0.05
40.738,0.03,-0.03,-0.04,0.06
40.748,0.03,-0.02,0.05,0.06
40.758,-0.05,-0.04,0.10,0.12
40.768,-0.05,-0.03,0.04,0.07
40.778,0.02,-0.01,-0.03,0.03
40.788,0.03,0.02,0.00,0.04
40.798,-0.03,-0.02,0.09,0.09
40.808,-0.00,-0.04,0.02,0.04
40.818,0.03,-0.02,-0.05,0.06
40.828,0.11,-0.02,-0.04,0.12
40.838,0.03,-0.01,0.03,0.05
40.848,-0.01,-0.05,0.04,0.07
40.858,0.04,-0.01,-0.03,0.06
40.868,0.09,0.01,-0.09,0.13
40.878,0.05,-0.02,-0.01,0.05
40.888,0.01,-0.04,0.03,0.05
40.898,0.07,-0.03,-0.04,0.09
40.907,0.11,-0.03,-0.12,0.17
40.918,0.09,-0.03,-0.05,0.11
40.927,0.03,-0.05,0.05,0.08
40.937,-0.01,-0.06,0.03,0.07
40.947,0.01,-0.05,-0.01,0.05
40.957,0.06,-0.02,0.03,0.07
40.967,0.00,-0.03,0.14,0.14
40.977,-0.07,0.05,0.14,0.17
40.987,-0.10,0.14,0.04,0.18
40.997,-0.07,0.17,-0.02,0.18
41.007,-0.05,0.09,0.07,0.12
41.017,-0.03,0.03,0.11,0.12
41.027,0.05,0.00,0.03,0.06
41.037,0.17,-0.01,-0.05,0.18
41.047,0.15,-0.02,0.03,0.15
41.057,0.03,0.00,0.09,0.09
41.066,-0.04,0.09,-0.02,0.10
41.077,-0.03,0.10,-0.10,0.15
41.086,-0.01,0.05,-0.02,0.05
41.097,-0.05,-0.02,0.13,0.14
41.106,0.02,-0.05,0.09,0.11
41.116,0.07,-0.03,-0.04,0.08
41.126,0.12,-0.01,-0.05,0.13
41.136,0.06,-0.03,0.04,0.08
41.146,-0.01,-0.02,0.04,0.04
41.156,-0.00,0.01,-0.05,0.05
41.166,0.01,0.08,-0.09,0.13
41.176,-0.04,0.11,0.01,0.12
41.186,-0.06,0.05,0.06,0.10
41.196,-0.01,0.03,0.02,0.04
41.206,0.06,0.04,-0.04,0.08
41.216,0.08,0.02,0.04,0.09
41.226,0.04,-0.01,0.11,0.12
41.236,0.08,-0.00,0.04,0.09
41.246,0.08,0.02,-0.05,0.09
41.256,0.06,0.03,-0.02,0.07
41.266,0.00,0.01,0.12,0.12
41.276,0.02,-0.02,0.12,0.12
41.285,0.08,-0.03,0.03,0.09
41.296,0.12,0.01,0.04,0.12
41.305,0.07,-0.00,0.11,0.13
41.315,0.05,-0.03,0.10,0.12
41.325,0.08,-0.01,-0.01,0.08
41.335,0.10,-0.01,-0.05,0.11
41.345,0.05,-0.02,0.06,0.08
41.355,0.02,-0.03,0.09,0.10
41.365,0.04,0.01,0.03,0.05
41.375,0.11,0.03,-0.05,0.13
41.385,0.10,-0.01,0.03,0.10
41.395,0.06,-0.02,0.10,0.12
41.405,0.05,-0.03,0.03,0.07
41.415,0.07,0.02,-0.07,0.10
41.425,0.03,0.09,-0.04,0.10
41.435,-0.09,0.08,0.07,0.14
41.445,-0.13,0.08,0.08,0.17
41.455,-0.04,0.07,-0.02,0.09
41.465,0.06,0.06,-0.03,0.09
41.475,0.04,0.01,0.05,0.07
41.484,0.03,-0.02,0.07,0.08
41.494,0.06,-0.02,-0.06,0.08
41.504,0.10,0.02,-0.11,0.15
41.514,0.05,0.03,-0.03,0.07
41.524,-0.03,-0.01,0.06,0.07
41.534,-0.04,0.00,0.01,0.04
41.544,0.03,0.02,-0.03,0.05
41.554,0.05,0.02,0.04,0.07
41.564,0.01,0.02,0.15,0.15
41.574,0.01,0.01,0.09,0.09
41.584,0.10,-0.01,-0.03,0.11
41.594,0.13,0.02,-0.03,0.13
41.604,0.04,0.04,0.07,0.09
41.614,-0.01,0.01,0.08,0.08
41.624,0.01,0.04,-0.01,0.04
41.634,0.03,0.09,-0.01,0.10
41.643,0.00,0.09,0.10,0.14
41.654,-0.04,0.04,0.15,0.16
41.664,-0.01,0.04,0.07,0.08
41.674,0.07,0.04,-0.02,0.08
41.683,0.09,0.04,0.03,0.10
41.693,0.02,0.03,0.09,0.09
